"","par1","par2","par3","par4","par5","par6","par7","par8","par9","part10","par11","par12","meanGroup","facesDisplayTime","maskTime","groupChoice","id","trial","faceIdentity","SD","realSD","rating","rt","image","condition","condition1","music.rock","music.pop","live.city","live.town","eat.icecream","eat.hamburger","time.beach","time.pool","pet.cat","pat.dog","X30","threatSimilar","threatDifferent","immoralSimilar","immoralDifferent","selectionPrinciple","selectionNoWhy","selectionYesWhy","groupPrecentEstimate","iden1","iden2","iden3","iden4","iden5","ntb1","ntb2","ntb3","ntb4","ntb5","ntb6","ntb7","ntb8","ntb9","ntb10","enviroDifRace","enviroDifSes","enviroDifPoli","sd1","sd2","sd3","sd4","sd5","sd6","sd7","sd8","sd9","sd10","sd11","bigFiveExtraverted","bigFiveCritical","bigFiveCons","bigFiveNeuro","bigFiveOpen","bigFiveReserved","bigFiveWarm","bigFiveCareless","bigFiveCalm","bigFiceConventional","poli","age","sex","citizen","citizenText","liveUS","yearsUS","partUS","partUSText","black","latin","white","asian","other","edu","income","identscale","condition_bi","condition_biEffect"
"1",117,115,121,131,137,129,125,109,111,135,113,133,123,1.99647,0.00213313,1,10,1,2,1,9.9453,113,4.97306,12,"high","high",1,NA,1,NA,NA,1,1,NA,1,NA,NA,17,17,18,17,2,NA,"Normally I choose those that were most similar or interesting to me.",74,16,17,17,16,17,2,3,3,5,4,3,1,3,5,4,31,70,49,1,1,2,1,2,1,2,2,1,1,2,7,5,6,6,7,2,5,5,3,4,4,19,"female",1,NA,1,"n/a",2,NA,0,0,1,0,0,3,5,3.6,"Different Mean",1
"2",120,118,114,130,136,140,138,126,134,122,116,142,128,1.98418,0.000929716,1,10,12,4,1,9.9453,138,5.28279,43,"low","low",1,NA,1,NA,NA,1,1,NA,1,NA,NA,17,17,18,17,2,NA,"Normally I choose those that were most similar or interesting to me.",74,16,17,17,16,17,2,3,3,5,4,3,1,3,5,4,31,70,49,1,1,2,1,2,1,2,2,1,1,2,7,5,6,6,7,2,5,5,3,4,4,19,"female",1,NA,1,"n/a",2,NA,0,0,1,0,0,3,5,3.6,"Different Mean",1
"3",145,150,148,128,150,135,134,150,127,148,139,125,139.917,1.99011,0.000523447,1,10,23,4,1,9.78364,140,3.32769,35,"same","same",1,NA,1,NA,NA,1,1,NA,1,NA,NA,17,17,18,17,2,NA,"Normally I choose those that were most similar or interesting to me.",74,16,17,17,16,17,2,3,3,5,4,3,1,3,5,4,31,70,49,1,1,2,1,2,1,2,2,1,1,2,7,5,6,6,7,2,5,5,3,4,4,19,"female",1,NA,1,"n/a",2,NA,0,0,1,0,0,3,5,3.6,"Same Mean",-1
"4",126,146,118,130,124,144,140,120,142,122,134,138,132,1.99485,0.000342977,1,10,34,4,1,9.9453,132,1.05688,50,"same","same",1,NA,1,NA,NA,1,1,NA,1,NA,NA,17,17,18,17,2,NA,"Normally I choose those that were most similar or interesting to me.",74,16,17,17,16,17,2,3,3,5,4,3,1,3,5,4,31,70,49,1,1,2,1,2,1,2,2,1,1,2,7,5,6,6,7,2,5,5,3,4,4,19,"female",1,NA,1,"n/a",2,NA,0,0,1,0,0,3,5,3.6,"Same Mean",-1
"5",122,138,132,136,142,128,120,140,144,124,116,118,130,2.00034,0.000427652,0,10,45,1,1,9.9453,140,3.93518,7,"low","low",1,NA,1,NA,NA,1,1,NA,1,NA,NA,17,17,18,17,2,NA,"Normally I choose those that were most similar or interesting to me.",74,16,17,17,16,17,2,3,3,5,4,3,1,3,5,4,31,70,49,1,1,2,1,2,1,2,2,1,1,2,7,5,6,6,7,2,5,5,3,4,4,19,"female",1,NA,1,"n/a",2,NA,0,0,1,0,0,3,5,3.6,"Different Mean",1
"6",112,126,108,116,124,106,110,130,132,128,104,120,118,1.99124,0.000470988,1,10,47,3,1,9.9453,118,2.46047,28,"same","same",1,NA,1,NA,NA,1,1,NA,1,NA,NA,17,17,18,17,2,NA,"Normally I choose those that were most similar or interesting to me.",74,16,17,17,16,17,2,3,3,5,4,3,1,3,5,4,31,70,49,1,1,2,1,2,1,2,2,1,1,2,7,5,6,6,7,2,5,5,3,4,4,19,"female",1,NA,1,"n/a",2,NA,0,0,1,0,0,3,5,3.6,"Same Mean",-1
"7",128,104,114,106,103,103,105,120,127,108,123,103,112,1.99054,0.000496647,0,10,48,2,1,9.89949,122,1.2769,48,"low","low",1,NA,1,NA,NA,1,1,NA,1,NA,NA,17,17,18,17,2,NA,"Normally I choose those that were most similar or interesting to me.",74,16,17,17,16,17,2,3,3,5,4,3,1,3,5,4,31,70,49,1,1,2,1,2,1,2,2,1,1,2,7,5,6,6,7,2,5,5,3,4,4,19,"female",1,NA,1,"n/a",2,NA,0,0,1,0,0,3,5,3.6,"Different Mean",1
"8",122,136,138,142,140,120,144,128,124,132,118,116,130,1.99386,0.000597573,1,10,49,2,1,9.9453,140,1.95775,24,"low","low",1,NA,1,NA,NA,1,1,NA,1,NA,NA,17,17,18,17,2,NA,"Normally I choose those that were most similar or interesting to me.",74,16,17,17,16,17,2,3,3,5,4,3,1,3,5,4,31,70,49,1,1,2,1,2,1,2,2,1,1,2,7,5,6,6,7,2,5,5,3,4,4,19,"female",1,NA,1,"n/a",2,NA,0,0,1,0,0,3,5,3.6,"Different Mean",1
"9",122,134,110,130,112,108,132,118,114,126,106,128,120,1.99498,0.000416819,0,10,50,2,1,9.9453,120,3.74047,44,"same","same",1,NA,1,NA,NA,1,1,NA,1,NA,NA,17,17,18,17,2,NA,"Normally I choose those that were most similar or interesting to me.",74,16,17,17,16,17,2,3,3,5,4,3,1,3,5,4,31,70,49,1,1,2,1,2,1,2,2,1,1,2,7,5,6,6,7,2,5,5,3,4,4,19,"female",1,NA,1,"n/a",2,NA,0,0,1,0,0,3,5,3.6,"Same Mean",-1
"10",112,106,116,128,124,130,132,120,110,126,104,108,118,1.98918,0.000262293,1,10,2,3,1,9.9453,128,1.51234,45,"low","low",1,NA,1,NA,NA,1,1,NA,1,NA,NA,17,17,18,17,2,NA,"Normally I choose those that were most similar or interesting to me.",74,16,17,17,16,17,2,3,3,5,4,3,1,3,5,4,31,70,49,1,1,2,1,2,1,2,2,1,1,2,7,5,6,6,7,2,5,5,3,4,4,19,"female",1,NA,1,"n/a",2,NA,0,0,1,0,0,3,5,3.6,"Different Mean",1
"11",121,123,119,139,141,129,117,137,143,133,125,145,131,1.9872,0.000501779,1,10,3,3,1,9.9453,121,1.26384,32,"high","high",1,NA,1,NA,NA,1,1,NA,1,NA,NA,17,17,18,17,2,NA,"Normally I choose those that were most similar or interesting to me.",74,16,17,17,16,17,2,3,3,5,4,3,1,3,5,4,31,70,49,1,1,2,1,2,1,2,2,1,1,2,7,5,6,6,7,2,5,5,3,4,4,19,"female",1,NA,1,"n/a",2,NA,0,0,1,0,0,3,5,3.6,"Different Mean",1
"12",144,122,134,146,150,148,126,142,128,130,124,138,136,1.99055,0.000243762,1,10,4,4,1,9.9453,136,1.44419,31,"same","same",1,NA,1,NA,NA,1,1,NA,1,NA,NA,17,17,18,17,2,NA,"Normally I choose those that were most similar or interesting to me.",74,16,17,17,16,17,2,3,3,5,4,3,1,3,5,4,31,70,49,1,1,2,1,2,1,2,2,1,1,2,7,5,6,6,7,2,5,5,3,4,4,19,"female",1,NA,1,"n/a",2,NA,0,0,1,0,0,3,5,3.6,"Same Mean",-1
"13",136,122,116,118,124,144,128,120,142,140,138,132,130,1.98972,0.000409976,0,10,5,3,1,9.9453,140,2.3955,21,"low","low",1,NA,1,NA,NA,1,1,NA,1,NA,NA,17,17,18,17,2,NA,"Normally I choose those that were most similar or interesting to me.",74,16,17,17,16,17,2,3,3,5,4,3,1,3,5,4,31,70,49,1,1,2,1,2,1,2,2,1,1,2,7,5,6,6,7,2,5,5,3,4,4,19,"female",1,NA,1,"n/a",2,NA,0,0,1,0,0,3,5,3.6,"Different Mean",1
"14",111,119,123,109,107,129,135,127,113,133,115,131,121,1.98997,0.000587024,1,10,6,1,1,9.9453,111,1.07795,3,"high","high",1,NA,1,NA,NA,1,1,NA,1,NA,NA,17,17,18,17,2,NA,"Normally I choose those that were most similar or interesting to me.",74,16,17,17,16,17,2,3,3,5,4,3,1,3,5,4,31,70,49,1,1,2,1,2,1,2,2,1,1,2,7,5,6,6,7,2,5,5,3,4,4,19,"female",1,NA,1,"n/a",2,NA,0,0,1,0,0,3,5,3.6,"Different Mean",1
"15",107,105,125,101,127,109,121,113,129,123,103,117,115,1.99135,0.000579612,1,10,7,4,1,9.9453,125,1.62682,38,"low","low",1,NA,1,NA,NA,1,1,NA,1,NA,NA,17,17,18,17,2,NA,"Normally I choose those that were most similar or interesting to me.",74,16,17,17,16,17,2,3,3,5,4,3,1,3,5,4,31,70,49,1,1,2,1,2,1,2,2,1,1,2,7,5,6,6,7,2,5,5,3,4,4,19,"female",1,NA,1,"n/a",2,NA,0,0,1,0,0,3,5,3.6,"Different Mean",1
"16",120,118,142,128,136,124,138,122,132,140,116,144,130,1.98473,0.000196435,0,10,8,1,1,9.9453,140,2.23344,39,"low","low",1,NA,1,NA,NA,1,1,NA,1,NA,NA,17,17,18,17,2,NA,"Normally I choose those that were most similar or interesting to me.",74,16,17,17,16,17,2,3,3,5,4,3,1,3,5,4,31,70,49,1,1,2,1,2,1,2,2,1,1,2,7,5,6,6,7,2,5,5,3,4,4,19,"female",1,NA,1,"n/a",2,NA,0,0,1,0,0,3,5,3.6,"Different Mean",1
"17",131,133,115,123,109,129,127,111,135,113,119,107,121,1.99822,0.000226656,0,10,9,1,1,9.9453,131,1.9534,47,"low","low",1,NA,1,NA,NA,1,1,NA,1,NA,NA,17,17,18,17,2,NA,"Normally I choose those that were most similar or interesting to me.",74,16,17,17,16,17,2,3,3,5,4,3,1,3,5,4,31,70,49,1,1,2,1,2,1,2,2,1,1,2,7,5,6,6,7,2,5,5,3,4,4,19,"female",1,NA,1,"n/a",2,NA,0,0,1,0,0,3,5,3.6,"Different Mean",1
"18",119,121,129,143,137,141,139,125,117,145,133,123,131,1.98576,0.000782319,1,10,10,1,1,9.9453,131,1.38227,29,"same","same",1,NA,1,NA,NA,1,1,NA,1,NA,NA,17,17,18,17,2,NA,"Normally I choose those that were most similar or interesting to me.",74,16,17,17,16,17,2,3,3,5,4,3,1,3,5,4,31,70,49,1,1,2,1,2,1,2,2,1,1,2,7,5,6,6,7,2,5,5,3,4,4,19,"female",1,NA,1,"n/a",2,NA,0,0,1,0,0,3,5,3.6,"Same Mean",-1
"19",106,127,103,120,103,128,105,103,123,104,114,108,112,1.98436,0.000413968,1,10,11,4,1,9.89949,112,1.61694,41,"same","same",1,NA,1,NA,NA,1,1,NA,1,NA,NA,17,17,18,17,2,NA,"Normally I choose those that were most similar or interesting to me.",74,16,17,17,16,17,2,3,3,5,4,3,1,3,5,4,31,70,49,1,1,2,1,2,1,2,2,1,1,2,7,5,6,6,7,2,5,5,3,4,4,19,"female",1,NA,1,"n/a",2,NA,0,0,1,0,0,3,5,3.6,"Same Mean",-1
"20",137,129,123,149,133,147,143,141,121,127,145,125,135,1.99104,0.000470418,1,10,13,2,1,9.9453,135,2.17718,20,"same","same",1,NA,1,NA,NA,1,1,NA,1,NA,NA,17,17,18,17,2,NA,"Normally I choose those that were most similar or interesting to me.",74,16,17,17,16,17,2,3,3,5,4,3,1,3,5,4,31,70,49,1,1,2,1,2,1,2,2,1,1,2,7,5,6,6,7,2,5,5,3,4,4,19,"female",1,NA,1,"n/a",2,NA,0,0,1,0,0,3,5,3.6,"Same Mean",-1
"21",124,122,132,145,142,131,125,147,145,149,147,136,137.083,1.99031,0.000322735,1,10,14,1,1,9.98598,127,1.32747,6,"high","high",1,NA,1,NA,NA,1,1,NA,1,NA,NA,17,17,18,17,2,NA,"Normally I choose those that were most similar or interesting to me.",74,16,17,17,16,17,2,3,3,5,4,3,1,3,5,4,31,70,49,1,1,2,1,2,1,2,2,1,1,2,7,5,6,6,7,2,5,5,3,4,4,19,"female",1,NA,1,"n/a",2,NA,0,0,1,0,0,3,5,3.6,"Different Mean",1
"22",134,112,106,108,126,132,130,118,110,114,122,128,120,1.99271,0.000408551,1,10,15,2,1,9.9453,120,1.1086,8,"same","same",1,NA,1,NA,NA,1,1,NA,1,NA,NA,17,17,18,17,2,NA,"Normally I choose those that were most similar or interesting to me.",74,16,17,17,16,17,2,3,3,5,4,3,1,3,5,4,31,70,49,1,1,2,1,2,1,2,2,1,1,2,7,5,6,6,7,2,5,5,3,4,4,19,"female",1,NA,1,"n/a",2,NA,0,0,1,0,0,3,5,3.6,"Same Mean",-1
"23",125,148,128,150,145,127,134,150,148,150,135,139,139.917,1.9841,0.000483247,0,10,16,3,1,9.78364,140,3.75122,2,"same","same",1,NA,1,NA,NA,1,1,NA,1,NA,NA,17,17,18,17,2,NA,"Normally I choose those that were most similar or interesting to me.",74,16,17,17,16,17,2,3,3,5,4,3,1,3,5,4,31,70,49,1,1,2,1,2,1,2,2,1,1,2,7,5,6,6,7,2,5,5,3,4,4,19,"female",1,NA,1,"n/a",2,NA,0,0,1,0,0,3,5,3.6,"Same Mean",-1
"24",106,101,112,104,121,126,101,125,118,101,102,103,110,1.98421,0.000571914,1,10,17,1,1,9.89949,110,2.46737,36,"same","same",1,NA,1,NA,NA,1,1,NA,1,NA,NA,17,17,18,17,2,NA,"Normally I choose those that were most similar or interesting to me.",74,16,17,17,16,17,2,3,3,5,4,3,1,3,5,4,31,70,49,1,1,2,1,2,1,2,2,1,1,2,7,5,6,6,7,2,5,5,3,4,4,19,"female",1,NA,1,"n/a",2,NA,0,0,1,0,0,3,5,3.6,"Same Mean",-1
"25",134,135,128,148,150,148,150,150,127,139,145,125,139.917,1.991,0.000373198,1,10,18,1,1,9.78364,140,2.62738,10,"same","same",1,NA,1,NA,NA,1,1,NA,1,NA,NA,17,17,18,17,2,NA,"Normally I choose those that were most similar or interesting to me.",74,16,17,17,16,17,2,3,3,5,4,3,1,3,5,4,31,70,49,1,1,2,1,2,1,2,2,1,1,2,7,5,6,6,7,2,5,5,3,4,4,19,"female",1,NA,1,"n/a",2,NA,0,0,1,0,0,3,5,3.6,"Same Mean",-1
"26",125,119,139,127,147,141,135,145,131,143,121,123,133,1.99021,0.0002258,1,10,19,1,1,9.9453,133,1.67792,26,"same","same",1,NA,1,NA,NA,1,1,NA,1,NA,NA,17,17,18,17,2,NA,"Normally I choose those that were most similar or interesting to me.",74,16,17,17,16,17,2,3,3,5,4,3,1,3,5,4,31,70,49,1,1,2,1,2,1,2,2,1,1,2,7,5,6,6,7,2,5,5,3,4,4,19,"female",1,NA,1,"n/a",2,NA,0,0,1,0,0,3,5,3.6,"Same Mean",-1
"27",117,133,135,131,113,125,111,137,115,109,129,121,123,1.98796,0.000479541,0,10,20,4,1,9.9453,123,1.12996,17,"same","same",1,NA,1,NA,NA,1,1,NA,1,NA,NA,17,17,18,17,2,NA,"Normally I choose those that were most similar or interesting to me.",74,16,17,17,16,17,2,3,3,5,4,3,1,3,5,4,31,70,49,1,1,2,1,2,1,2,2,1,1,2,7,5,6,6,7,2,5,5,3,4,4,19,"female",1,NA,1,"n/a",2,NA,0,0,1,0,0,3,5,3.6,"Same Mean",-1
"28",122,127,102,102,119,113,126,107,104,105,102,103,111,1.99299,0.000261438,0,10,21,1,1,9.89949,121,1.19165,5,"low","low",1,NA,1,NA,NA,1,1,NA,1,NA,NA,17,17,18,17,2,NA,"Normally I choose those that were most similar or interesting to me.",74,16,17,17,16,17,2,3,3,5,4,3,1,3,5,4,31,70,49,1,1,2,1,2,1,2,2,1,1,2,7,5,6,6,7,2,5,5,3,4,4,19,"female",1,NA,1,"n/a",2,NA,0,0,1,0,0,3,5,3.6,"Different Mean",1
"29",118,116,138,142,126,136,130,114,140,120,134,122,128,1.99372,0.000266855,0,10,22,4,1,9.9453,118,1.12403,15,"high","high",1,NA,1,NA,NA,1,1,NA,1,NA,NA,17,17,18,17,2,NA,"Normally I choose those that were most similar or interesting to me.",74,16,17,17,16,17,2,3,3,5,4,3,1,3,5,4,31,70,49,1,1,2,1,2,1,2,2,1,1,2,7,5,6,6,7,2,5,5,3,4,4,19,"female",1,NA,1,"n/a",2,NA,0,0,1,0,0,3,5,3.6,"Different Mean",1
"30",125,126,146,146,148,137,123,143,132,148,150,133,138.083,1.99263,0.000453027,1,10,24,4,1,9.98598,138,1.55871,19,"same","same",1,NA,1,NA,NA,1,1,NA,1,NA,NA,17,17,18,17,2,NA,"Normally I choose those that were most similar or interesting to me.",74,16,17,17,16,17,2,3,3,5,4,3,1,3,5,4,31,70,49,1,1,2,1,2,1,2,2,1,1,2,7,5,6,6,7,2,5,5,3,4,4,19,"female",1,NA,1,"n/a",2,NA,0,0,1,0,0,3,5,3.6,"Same Mean",-1
"31",134,135,139,125,150,148,145,150,128,127,148,150,139.917,1.98912,0.000216677,0,10,25,1,1,9.78364,140,1.41211,23,"same","same",1,NA,1,NA,NA,1,1,NA,1,NA,NA,17,17,18,17,2,NA,"Normally I choose those that were most similar or interesting to me.",74,16,17,17,16,17,2,3,3,5,4,3,1,3,5,4,31,70,49,1,1,2,1,2,1,2,2,1,1,2,7,5,6,6,7,2,5,5,3,4,4,19,"female",1,NA,1,"n/a",2,NA,0,0,1,0,0,3,5,3.6,"Same Mean",-1
"32",128,124,122,108,106,110,102,118,114,130,126,104,116,1.99953,0.000306484,0,10,26,2,1,9.9453,126,1.28496,1,"low","low",1,NA,1,NA,NA,1,1,NA,1,NA,NA,17,17,18,17,2,NA,"Normally I choose those that were most similar or interesting to me.",74,16,17,17,16,17,2,3,3,5,4,3,1,3,5,4,31,70,49,1,1,2,1,2,1,2,2,1,1,2,7,5,6,6,7,2,5,5,3,4,4,19,"female",1,NA,1,"n/a",2,NA,0,0,1,0,0,3,5,3.6,"Different Mean",1
"33",143,145,141,139,119,123,147,131,125,135,121,127,133,1.98477,0.000166499,1,10,27,1,1,9.9453,123,1.11628,30,"high","high",1,NA,1,NA,NA,1,1,NA,1,NA,NA,17,17,18,17,2,NA,"Normally I choose those that were most similar or interesting to me.",74,16,17,17,16,17,2,3,3,5,4,3,1,3,5,4,31,70,49,1,1,2,1,2,1,2,2,1,1,2,7,5,6,6,7,2,5,5,3,4,4,19,"female",1,NA,1,"n/a",2,NA,0,0,1,0,0,3,5,3.6,"Different Mean",1
"34",136,142,116,118,120,124,122,132,140,128,144,138,130,1.99103,0.000277689,0,10,28,1,1,9.9453,140,2.37712,18,"low","low",1,NA,1,NA,NA,1,1,NA,1,NA,NA,17,17,18,17,2,NA,"Normally I choose those that were most similar or interesting to me.",74,16,17,17,16,17,2,3,3,5,4,3,1,3,5,4,31,70,49,1,1,2,1,2,1,2,2,1,1,2,7,5,6,6,7,2,5,5,3,4,4,19,"female",1,NA,1,"n/a",2,NA,0,0,1,0,0,3,5,3.6,"Different Mean",1
"35",141,123,147,145,143,127,125,121,133,149,137,129,135,1.99,0.000496077,0,10,29,3,1,9.9453,125,1.77785,4,"high","high",1,NA,1,NA,NA,1,1,NA,1,NA,NA,17,17,18,17,2,NA,"Normally I choose those that were most similar or interesting to me.",74,16,17,17,16,17,2,3,3,5,4,3,1,3,5,4,31,70,49,1,1,2,1,2,1,2,2,1,1,2,7,5,6,6,7,2,5,5,3,4,4,19,"female",1,NA,1,"n/a",2,NA,0,0,1,0,0,3,5,3.6,"Different Mean",1
"36",147,129,123,137,127,141,143,149,121,145,133,125,135,1.9952,0.000209265,1,10,30,3,1,9.9453,125,1.28931,37,"high","high",1,NA,1,NA,NA,1,1,NA,1,NA,NA,17,17,18,17,2,NA,"Normally I choose those that were most similar or interesting to me.",74,16,17,17,16,17,2,3,3,5,4,3,1,3,5,4,31,70,49,1,1,2,1,2,1,2,2,1,1,2,7,5,6,6,7,2,5,5,3,4,4,19,"female",1,NA,1,"n/a",2,NA,0,0,1,0,0,3,5,3.6,"Different Mean",1
"37",135,109,131,111,107,119,113,133,127,115,129,123,121,1.98631,0.000411402,1,10,31,2,1,9.9453,111,0.364554,22,"high","high",1,NA,1,NA,NA,1,1,NA,1,NA,NA,17,17,18,17,2,NA,"Normally I choose those that were most similar or interesting to me.",74,16,17,17,16,17,2,3,3,5,4,3,1,3,5,4,31,70,49,1,1,2,1,2,1,2,2,1,1,2,7,5,6,6,7,2,5,5,3,4,4,19,"female",1,NA,1,"n/a",2,NA,0,0,1,0,0,3,5,3.6,"Different Mean",1
"38",125,148,135,150,150,150,139,134,128,145,127,148,139.917,1.98953,0.000246613,1,10,32,3,1,9.78364,140,2.12845,16,"same","same",1,NA,1,NA,NA,1,1,NA,1,NA,NA,17,17,18,17,2,NA,"Normally I choose those that were most similar or interesting to me.",74,16,17,17,16,17,2,3,3,5,4,3,1,3,5,4,31,70,49,1,1,2,1,2,1,2,2,1,1,2,7,5,6,6,7,2,5,5,3,4,4,19,"female",1,NA,1,"n/a",2,NA,0,0,1,0,0,3,5,3.6,"Same Mean",-1
"39",119,127,113,102,104,105,126,107,102,122,103,102,111,1.98431,0.00067227,0,10,33,3,1,9.89949,121,8.40242,11,"low","low",1,NA,1,NA,NA,1,1,NA,1,NA,NA,17,17,18,17,2,NA,"Normally I choose those that were most similar or interesting to me.",74,16,17,17,16,17,2,3,3,5,4,3,1,3,5,4,31,70,49,1,1,2,1,2,1,2,2,1,1,2,7,5,6,6,7,2,5,5,3,4,4,19,"female",1,NA,1,"n/a",2,NA,0,0,1,0,0,3,5,3.6,"Different Mean",1
"40",139,141,125,135,117,113,137,119,133,121,115,129,127,1.99183,0.000398287,1,10,35,1,1,9.9453,127,1.4929,33,"same","same",1,NA,1,NA,NA,1,1,NA,1,NA,NA,17,17,18,17,2,NA,"Normally I choose those that were most similar or interesting to me.",74,16,17,17,16,17,2,3,3,5,4,3,1,3,5,4,31,70,49,1,1,2,1,2,1,2,2,1,1,2,7,5,6,6,7,2,5,5,3,4,4,19,"female",1,NA,1,"n/a",2,NA,0,0,1,0,0,3,5,3.6,"Same Mean",-1
"41",138,120,136,142,122,124,118,128,116,132,144,140,130,1.98869,0.000305914,1,10,36,3,1,9.9453,140,2.01282,42,"low","low",1,NA,1,NA,NA,1,1,NA,1,NA,NA,17,17,18,17,2,NA,"Normally I choose those that were most similar or interesting to me.",74,16,17,17,16,17,2,3,3,5,4,3,1,3,5,4,31,70,49,1,1,2,1,2,1,2,2,1,1,2,7,5,6,6,7,2,5,5,3,4,4,19,"female",1,NA,1,"n/a",2,NA,0,0,1,0,0,3,5,3.6,"Different Mean",1
"42",126,107,102,119,105,127,102,103,113,122,104,102,111,1.9957,0.000232073,0,10,37,2,1,9.89949,121,1.08873,46,"low","low",1,NA,1,NA,NA,1,1,NA,1,NA,NA,17,17,18,17,2,NA,"Normally I choose those that were most similar or interesting to me.",74,16,17,17,16,17,2,3,3,5,4,3,1,3,5,4,31,70,49,1,1,2,1,2,1,2,2,1,1,2,7,5,6,6,7,2,5,5,3,4,4,19,"female",1,NA,1,"n/a",2,NA,0,0,1,0,0,3,5,3.6,"Different Mean",1
"43",136,144,138,132,122,116,142,120,118,124,140,128,130,1.99132,0.000229507,0,10,38,1,1,9.9453,120,3.59395,9,"high","high",1,NA,1,NA,NA,1,1,NA,1,NA,NA,17,17,18,17,2,NA,"Normally I choose those that were most similar or interesting to me.",74,16,17,17,16,17,2,3,3,5,4,3,1,3,5,4,31,70,49,1,1,2,1,2,1,2,2,1,1,2,7,5,6,6,7,2,5,5,3,4,4,19,"female",1,NA,1,"n/a",2,NA,0,0,1,0,0,3,5,3.6,"Different Mean",1
"44",118,122,140,116,136,134,126,130,114,138,120,142,128,1.99336,0.000347824,0,10,39,2,1,9.9453,128,2.12486,14,"same","same",1,NA,1,NA,NA,1,1,NA,1,NA,NA,17,17,18,17,2,NA,"Normally I choose those that were most similar or interesting to me.",74,16,17,17,16,17,2,3,3,5,4,3,1,3,5,4,31,70,49,1,1,2,1,2,1,2,2,1,1,2,7,5,6,6,7,2,5,5,3,4,4,19,"female",1,NA,1,"n/a",2,NA,0,0,1,0,0,3,5,3.6,"Same Mean",-1
"45",108,105,106,114,103,123,103,127,128,104,103,120,112,1.987,0.000275408,1,10,40,4,1,9.89949,122,1.23093,27,"low","low",1,NA,1,NA,NA,1,1,NA,1,NA,NA,17,17,18,17,2,NA,"Normally I choose those that were most similar or interesting to me.",74,16,17,17,16,17,2,3,3,5,4,3,1,3,5,4,31,70,49,1,1,2,1,2,1,2,2,1,1,2,7,5,6,6,7,2,5,5,3,4,4,19,"female",1,NA,1,"n/a",2,NA,0,0,1,0,0,3,5,3.6,"Different Mean",1
"46",129,133,109,113,135,121,115,117,131,125,111,137,123,1.98578,0.000427082,0,10,41,3,1,9.9453,133,2.18249,25,"low","low",1,NA,1,NA,NA,1,1,NA,1,NA,NA,17,17,18,17,2,NA,"Normally I choose those that were most similar or interesting to me.",74,16,17,17,16,17,2,3,3,5,4,3,1,3,5,4,31,70,49,1,1,2,1,2,1,2,2,1,1,2,7,5,6,6,7,2,5,5,3,4,4,19,"female",1,NA,1,"n/a",2,NA,0,0,1,0,0,3,5,3.6,"Different Mean",1
"47",123,125,148,148,146,146,137,133,132,150,143,126,138.083,1.98732,0.000354666,1,10,42,2,1,9.98598,138,1.43056,34,"same","same",1,NA,1,NA,NA,1,1,NA,1,NA,NA,17,17,18,17,2,NA,"Normally I choose those that were most similar or interesting to me.",74,16,17,17,16,17,2,3,3,5,4,3,1,3,5,4,31,70,49,1,1,2,1,2,1,2,2,1,1,2,7,5,6,6,7,2,5,5,3,4,4,19,"female",1,NA,1,"n/a",2,NA,0,0,1,0,0,3,5,3.6,"Same Mean",-1
"48",148,145,127,134,128,135,150,150,139,150,148,125,139.917,1.98635,0.000198431,1,10,43,3,1,9.78364,140,1.59821,40,"same","same",1,NA,1,NA,NA,1,1,NA,1,NA,NA,17,17,18,17,2,NA,"Normally I choose those that were most similar or interesting to me.",74,16,17,17,16,17,2,3,3,5,4,3,1,3,5,4,31,70,49,1,1,2,1,2,1,2,2,1,1,2,7,5,6,6,7,2,5,5,3,4,4,19,"female",1,NA,1,"n/a",2,NA,0,0,1,0,0,3,5,3.6,"Same Mean",-1
"49",134,150,148,150,125,127,139,145,150,148,135,128,139.917,1.98579,0.00036493,1,10,44,4,1,9.78364,140,1.68224,49,"same","same",1,NA,1,NA,NA,1,1,NA,1,NA,NA,17,17,18,17,2,NA,"Normally I choose those that were most similar or interesting to me.",74,16,17,17,16,17,2,3,3,5,4,3,1,3,5,4,31,70,49,1,1,2,1,2,1,2,2,1,1,2,7,5,6,6,7,2,5,5,3,4,4,19,"female",1,NA,1,"n/a",2,NA,0,0,1,0,0,3,5,3.6,"Same Mean",-1
"50",129,135,131,125,121,111,113,133,137,109,115,117,123,1.99193,0.000416533,1,10,46,2,1,9.9453,123,1.04257,13,"same","same",1,NA,1,NA,NA,1,1,NA,1,NA,NA,17,17,18,17,2,NA,"Normally I choose those that were most similar or interesting to me.",74,16,17,17,16,17,2,3,3,5,4,3,1,3,5,4,31,70,49,1,1,2,1,2,1,2,2,1,1,2,7,5,6,6,7,2,5,5,3,4,4,19,"female",1,NA,1,"n/a",2,NA,0,0,1,0,0,3,5,3.6,"Same Mean",-1
"51",138,144,130,124,142,122,146,140,134,126,118,120,132,1.99977,0.00250434,1,11,1,3,1,9.9453,132,3.77014,5,"same","same",NA,1,1,NA,1,NA,1,NA,NA,1,NA,19,14,18,15,2,NA,"I eliminated those immediately if they were very different than mine; i wish other Americans feel the same way I do about certain things",75,18,18,18,18,18,4,5,2,4,5,4,2,4,3,3,31,49,56,2,2,1,1,1,2,1,2,1,2,2,6,1,5,2,6,2,5,2,6,5,5,19,"female",1,NA,1,"19",2,NA,0,0,1,0,0,2,6,5,"Same Mean",-1
"52",120,124,114,112,128,116,136,132,134,108,130,110,122,1.99934,0.000689948,1,11,12,4,1,9.9453,132,1.85031,33,"low","low",NA,1,1,NA,1,NA,1,NA,NA,1,NA,19,14,18,15,2,NA,"I eliminated those immediately if they were very different than mine; i wish other Americans feel the same way I do about certain things",75,18,18,18,18,18,4,5,2,4,5,4,2,4,3,3,31,49,56,2,2,1,1,1,2,1,2,1,2,2,6,1,5,2,6,2,5,2,6,5,5,19,"female",1,NA,1,"19",2,NA,0,0,1,0,0,2,6,5,"Different Mean",1
"53",125,102,103,112,101,118,126,101,106,101,104,121,110,1.99702,0.000533997,1,11,23,2,1,9.89949,110,1.06992,3,"same","same",NA,1,1,NA,1,NA,1,NA,NA,1,NA,19,14,18,15,2,NA,"I eliminated those immediately if they were very different than mine; i wish other Americans feel the same way I do about certain things",75,18,18,18,18,18,4,5,2,4,5,4,2,4,3,3,31,49,56,2,2,1,1,1,2,1,2,1,2,2,6,1,5,2,6,2,5,2,6,5,5,19,"female",1,NA,1,"19",2,NA,0,0,1,0,0,2,6,5,"Same Mean",-1
"54",119,129,127,123,131,115,107,111,135,113,109,133,121,1.99172,0.000535137,1,11,34,4,1,9.9453,111,0.825213,30,"high","high",NA,1,1,NA,1,NA,1,NA,NA,1,NA,19,14,18,15,2,NA,"I eliminated those immediately if they were very different than mine; i wish other Americans feel the same way I do about certain things",75,18,18,18,18,18,4,5,2,4,5,4,2,4,3,3,31,49,56,2,2,1,1,1,2,1,2,1,2,2,6,1,5,2,6,2,5,2,6,5,5,19,"female",1,NA,1,"19",2,NA,0,0,1,0,0,2,6,5,"Different Mean",1
"55",125,139,119,129,141,137,117,121,145,143,123,133,131,1.99806,0.000480397,1,11,45,1,1,9.9453,121,2.62011,15,"high","high",NA,1,1,NA,1,NA,1,NA,NA,1,NA,19,14,18,15,2,NA,"I eliminated those immediately if they were very different than mine; i wish other Americans feel the same way I do about certain things",75,18,18,18,18,18,4,5,2,4,5,4,2,4,3,3,31,49,56,2,2,1,1,1,2,1,2,1,2,2,6,1,5,2,6,2,5,2,6,5,5,19,"female",1,NA,1,"19",2,NA,0,0,1,0,0,2,6,5,"Different Mean",1
"56",112,130,116,122,118,136,138,134,110,132,114,126,124,1.98931,0.000517746,0,11,47,2,1,9.9453,124,2.0457,8,"same","same",NA,1,1,NA,1,NA,1,NA,NA,1,NA,19,14,18,15,2,NA,"I eliminated those immediately if they were very different than mine; i wish other Americans feel the same way I do about certain things",75,18,18,18,18,18,4,5,2,4,5,4,2,4,3,3,31,49,56,2,2,1,1,1,2,1,2,1,2,2,6,1,5,2,6,2,5,2,6,5,5,19,"female",1,NA,1,"19",2,NA,0,0,1,0,0,2,6,5,"Same Mean",-1
"57",123,119,129,107,109,127,113,115,131,111,133,135,121,1.99137,0.000588166,0,11,48,2,1,9.9453,111,0.509694,28,"high","high",NA,1,1,NA,1,NA,1,NA,NA,1,NA,19,14,18,15,2,NA,"I eliminated those immediately if they were very different than mine; i wish other Americans feel the same way I do about certain things",75,18,18,18,18,18,4,5,2,4,5,4,2,4,3,3,31,49,56,2,2,1,1,1,2,1,2,1,2,2,6,1,5,2,6,2,5,2,6,5,5,19,"female",1,NA,1,"19",2,NA,0,0,1,0,0,2,6,5,"Different Mean",1
"58",133,115,117,113,125,121,119,135,137,141,129,139,127,1.99566,0.000381752,1,11,49,2,1,9.9453,117,1.97253,44,"high","high",NA,1,1,NA,1,NA,1,NA,NA,1,NA,19,14,18,15,2,NA,"I eliminated those immediately if they were very different than mine; i wish other Americans feel the same way I do about certain things",75,18,18,18,18,18,4,5,2,4,5,4,2,4,3,3,31,49,56,2,2,1,1,1,2,1,2,1,2,2,6,1,5,2,6,2,5,2,6,5,5,19,"female",1,NA,1,"19",2,NA,0,0,1,0,0,2,6,5,"Different Mean",1
"59",141,137,115,143,127,121,135,123,119,131,117,139,129,1.98658,0.000434496,1,11,50,4,1,9.9453,129,1.14792,21,"same","same",NA,1,1,NA,1,NA,1,NA,NA,1,NA,19,14,18,15,2,NA,"I eliminated those immediately if they were very different than mine; i wish other Americans feel the same way I do about certain things",75,18,18,18,18,18,4,5,2,4,5,4,2,4,3,3,31,49,56,2,2,1,1,1,2,1,2,1,2,2,6,1,5,2,6,2,5,2,6,5,5,19,"female",1,NA,1,"19",2,NA,0,0,1,0,0,2,6,5,"Same Mean",-1
"60",127,133,126,147,134,149,147,124,149,138,144,150,139,1.98657,0.000415964,0,11,2,2,1,9.88111,129,1.4147,9,"high","high",NA,1,1,NA,1,NA,1,NA,NA,1,NA,19,14,18,15,2,NA,"I eliminated those immediately if they were very different than mine; i wish other Americans feel the same way I do about certain things",75,18,18,18,18,18,4,5,2,4,5,4,2,4,3,3,31,49,56,2,2,1,1,1,2,1,2,1,2,2,6,1,5,2,6,2,5,2,6,5,5,19,"female",1,NA,1,"19",2,NA,0,0,1,0,0,2,6,5,"Different Mean",1
"61",148,125,150,128,145,127,150,135,150,134,148,139,139.917,1.99337,0.000610974,1,11,3,3,1,9.78364,140,1.57473,24,"same","same",NA,1,1,NA,1,NA,1,NA,NA,1,NA,19,14,18,15,2,NA,"I eliminated those immediately if they were very different than mine; i wish other Americans feel the same way I do about certain things",75,18,18,18,18,18,4,5,2,4,5,4,2,4,3,3,31,49,56,2,2,1,1,1,2,1,2,1,2,2,6,1,5,2,6,2,5,2,6,5,5,19,"female",1,NA,1,"19",2,NA,0,0,1,0,0,2,6,5,"Same Mean",-1
"62",136,132,142,138,124,120,144,140,116,118,128,122,130,1.98698,0.000599285,0,11,4,1,1,9.9453,140,1.46463,10,"low","low",NA,1,1,NA,1,NA,1,NA,NA,1,NA,19,14,18,15,2,NA,"I eliminated those immediately if they were very different than mine; i wish other Americans feel the same way I do about certain things",75,18,18,18,18,18,4,5,2,4,5,4,2,4,3,3,31,49,56,2,2,1,1,1,2,1,2,1,2,2,6,1,5,2,6,2,5,2,6,5,5,19,"female",1,NA,1,"19",2,NA,0,0,1,0,0,2,6,5,"Different Mean",1
"63",127,150,150,134,125,139,150,145,148,135,148,128,139.917,1.99043,0.000218388,0,11,5,3,1,9.78364,130,2.41128,41,"high","high",NA,1,1,NA,1,NA,1,NA,NA,1,NA,19,14,18,15,2,NA,"I eliminated those immediately if they were very different than mine; i wish other Americans feel the same way I do about certain things",75,18,18,18,18,18,4,5,2,4,5,4,2,4,3,3,31,49,56,2,2,1,1,1,2,1,2,1,2,2,6,1,5,2,6,2,5,2,6,5,5,19,"female",1,NA,1,"19",2,NA,0,0,1,0,0,2,6,5,"Different Mean",1
"64",107,121,106,128,105,104,104,129,104,109,115,124,113,1.99206,0.000396007,1,11,6,2,1,9.89949,123,0.909251,46,"low","low",NA,1,1,NA,1,NA,1,NA,NA,1,NA,19,14,18,15,2,NA,"I eliminated those immediately if they were very different than mine; i wish other Americans feel the same way I do about certain things",75,18,18,18,18,18,4,5,2,4,5,4,2,4,3,3,31,49,56,2,2,1,1,1,2,1,2,1,2,2,6,1,5,2,6,2,5,2,6,5,5,19,"female",1,NA,1,"19",2,NA,0,0,1,0,0,2,6,5,"Different Mean",1
"65",125,105,121,127,109,101,129,103,123,113,117,107,115,1.99674,0.000536563,1,11,7,1,1,9.9453,125,1.52135,17,"low","low",NA,1,1,NA,1,NA,1,NA,NA,1,NA,19,14,18,15,2,NA,"I eliminated those immediately if they were very different than mine; i wish other Americans feel the same way I do about certain things",75,18,18,18,18,18,4,5,2,4,5,4,2,4,3,3,31,49,56,2,2,1,1,1,2,1,2,1,2,2,6,1,5,2,6,2,5,2,6,5,5,19,"female",1,NA,1,"19",2,NA,0,0,1,0,0,2,6,5,"Different Mean",1
"66",128,140,118,136,114,134,138,116,120,124,132,112,126,1.9852,0.00062637,0,11,8,3,1,9.9453,116,3.5502,20,"high","high",NA,1,1,NA,1,NA,1,NA,NA,1,NA,19,14,18,15,2,NA,"I eliminated those immediately if they were very different than mine; i wish other Americans feel the same way I do about certain things",75,18,18,18,18,18,4,5,2,4,5,4,2,4,3,3,31,49,56,2,2,1,1,1,2,1,2,1,2,2,6,1,5,2,6,2,5,2,6,5,5,19,"female",1,NA,1,"19",2,NA,0,0,1,0,0,2,6,5,"Different Mean",1
"67",142,140,138,136,128,144,120,116,122,118,132,124,130,1.99194,0.000206984,1,11,9,1,1,9.9453,140,2.15961,34,"low","low",NA,1,1,NA,1,NA,1,NA,NA,1,NA,19,14,18,15,2,NA,"I eliminated those immediately if they were very different than mine; i wish other Americans feel the same way I do about certain things",75,18,18,18,18,18,4,5,2,4,5,4,2,4,3,3,31,49,56,2,2,1,1,1,2,1,2,1,2,2,6,1,5,2,6,2,5,2,6,5,5,19,"female",1,NA,1,"19",2,NA,0,0,1,0,0,2,6,5,"Different Mean",1
"68",136,138,124,132,142,144,122,120,128,118,140,116,130,1.9869,0.000310761,1,11,10,3,1,9.9453,140,1.58125,18,"low","low",NA,1,1,NA,1,NA,1,NA,NA,1,NA,19,14,18,15,2,NA,"I eliminated those immediately if they were very different than mine; i wish other Americans feel the same way I do about certain things",75,18,18,18,18,18,4,5,2,4,5,4,2,4,3,3,31,49,56,2,2,1,1,1,2,1,2,1,2,2,6,1,5,2,6,2,5,2,6,5,5,19,"female",1,NA,1,"19",2,NA,0,0,1,0,0,2,6,5,"Different Mean",1
"69",150,135,134,125,150,148,150,139,148,127,128,145,139.917,1.98421,0.000569919,0,11,11,4,1,9.78364,140,2.33409,47,"same","same",NA,1,1,NA,1,NA,1,NA,NA,1,NA,19,14,18,15,2,NA,"I eliminated those immediately if they were very different than mine; i wish other Americans feel the same way I do about certain things",75,18,18,18,18,18,4,5,2,4,5,4,2,4,3,3,31,49,56,2,2,1,1,1,2,1,2,1,2,2,6,1,5,2,6,2,5,2,6,5,5,19,"female",1,NA,1,"19",2,NA,0,0,1,0,0,2,6,5,"Same Mean",-1
"70",150,134,150,127,150,148,128,135,148,125,145,139,139.917,1.98408,0.000456164,0,11,13,2,1,9.78364,140,1.45056,40,"same","same",NA,1,1,NA,1,NA,1,NA,NA,1,NA,19,14,18,15,2,NA,"I eliminated those immediately if they were very different than mine; i wish other Americans feel the same way I do about certain things",75,18,18,18,18,18,4,5,2,4,5,4,2,4,3,3,31,49,56,2,2,1,1,1,2,1,2,1,2,2,6,1,5,2,6,2,5,2,6,5,5,19,"female",1,NA,1,"19",2,NA,0,0,1,0,0,2,6,5,"Same Mean",-1
"71",128,138,120,116,144,132,140,142,136,124,122,118,130,1.99961,0.00026543,0,11,14,3,1,9.9453,140,2.60207,31,"low","low",NA,1,1,NA,1,NA,1,NA,NA,1,NA,19,14,18,15,2,NA,"I eliminated those immediately if they were very different than mine; i wish other Americans feel the same way I do about certain things",75,18,18,18,18,18,4,5,2,4,5,4,2,4,3,3,31,49,56,2,2,1,1,1,2,1,2,1,2,2,6,1,5,2,6,2,5,2,6,5,5,19,"female",1,NA,1,"19",2,NA,0,0,1,0,0,2,6,5,"Different Mean",1
"72",121,129,137,123,149,145,127,147,133,141,125,143,135,1.9986,0.000465287,0,11,15,4,1,9.9453,135,1.23603,38,"same","same",NA,1,1,NA,1,NA,1,NA,NA,1,NA,19,14,18,15,2,NA,"I eliminated those immediately if they were very different than mine; i wish other Americans feel the same way I do about certain things",75,18,18,18,18,18,4,5,2,4,5,4,2,4,3,3,31,49,56,2,2,1,1,1,2,1,2,1,2,2,6,1,5,2,6,2,5,2,6,5,5,19,"female",1,NA,1,"19",2,NA,0,0,1,0,0,2,6,5,"Same Mean",-1
"73",130,118,110,134,126,116,138,114,112,122,136,132,124,1.9988,0.000391731,1,11,16,2,1,9.9453,134,1.40254,42,"low","low",NA,1,1,NA,1,NA,1,NA,NA,1,NA,19,14,18,15,2,NA,"I eliminated those immediately if they were very different than mine; i wish other Americans feel the same way I do about certain things",75,18,18,18,18,18,4,5,2,4,5,4,2,4,3,3,31,49,56,2,2,1,1,1,2,1,2,1,2,2,6,1,5,2,6,2,5,2,6,5,5,19,"female",1,NA,1,"19",2,NA,0,0,1,0,0,2,6,5,"Different Mean",1
"74",101,101,102,125,106,121,126,118,101,104,103,112,110,1.9916,0.000408266,1,11,17,1,1,9.89949,110,0.476068,22,"same","same",NA,1,1,NA,1,NA,1,NA,NA,1,NA,19,14,18,15,2,NA,"I eliminated those immediately if they were very different than mine; i wish other Americans feel the same way I do about certain things",75,18,18,18,18,18,4,5,2,4,5,4,2,4,3,3,31,49,56,2,2,1,1,1,2,1,2,1,2,2,6,1,5,2,6,2,5,2,6,5,5,19,"female",1,NA,1,"19",2,NA,0,0,1,0,0,2,6,5,"Same Mean",-1
"75",101,104,112,125,126,101,106,102,101,121,103,118,110,1.99245,0.000233499,1,11,18,1,1,9.89949,110,3.8765,11,"same","same",NA,1,1,NA,1,NA,1,NA,NA,1,NA,19,14,18,15,2,NA,"I eliminated those immediately if they were very different than mine; i wish other Americans feel the same way I do about certain things",75,18,18,18,18,18,4,5,2,4,5,4,2,4,3,3,31,49,56,2,2,1,1,1,2,1,2,1,2,2,6,1,5,2,6,2,5,2,6,5,5,19,"female",1,NA,1,"19",2,NA,0,0,1,0,0,2,6,5,"Same Mean",-1
"76",112,128,138,140,118,136,116,132,124,114,120,134,126,1.99425,0.000545401,0,11,19,4,1,9.9453,116,1.49037,13,"high","high",NA,1,1,NA,1,NA,1,NA,NA,1,NA,19,14,18,15,2,NA,"I eliminated those immediately if they were very different than mine; i wish other Americans feel the same way I do about certain things",75,18,18,18,18,18,4,5,2,4,5,4,2,4,3,3,31,49,56,2,2,1,1,1,2,1,2,1,2,2,6,1,5,2,6,2,5,2,6,5,5,19,"female",1,NA,1,"19",2,NA,0,0,1,0,0,2,6,5,"Different Mean",1
"77",135,117,113,111,133,129,109,121,131,125,115,137,123,1.99478,0.000341553,0,11,20,2,1,9.9453,113,0.873121,4,"high","high",NA,1,1,NA,1,NA,1,NA,NA,1,NA,19,14,18,15,2,NA,"I eliminated those immediately if they were very different than mine; i wish other Americans feel the same way I do about certain things",75,18,18,18,18,18,4,5,2,4,5,4,2,4,3,3,31,49,56,2,2,1,1,1,2,1,2,1,2,2,6,1,5,2,6,2,5,2,6,5,5,19,"female",1,NA,1,"19",2,NA,0,0,1,0,0,2,6,5,"Different Mean",1
"78",105,104,113,102,126,102,127,122,102,103,107,119,111,1.99415,0.000313613,1,11,21,1,1,9.89949,121,0.990407,49,"low","low",NA,1,1,NA,1,NA,1,NA,NA,1,NA,19,14,18,15,2,NA,"I eliminated those immediately if they were very different than mine; i wish other Americans feel the same way I do about certain things",75,18,18,18,18,18,4,5,2,4,5,4,2,4,3,3,31,49,56,2,2,1,1,1,2,1,2,1,2,2,6,1,5,2,6,2,5,2,6,5,5,19,"female",1,NA,1,"19",2,NA,0,0,1,0,0,2,6,5,"Different Mean",1
"79",122,102,113,119,127,102,104,105,103,107,126,102,111,1.98513,0.000317319,0,11,22,2,1,9.89949,111,0.499136,14,"same","same",NA,1,1,NA,1,NA,1,NA,NA,1,NA,19,14,18,15,2,NA,"I eliminated those immediately if they were very different than mine; i wish other Americans feel the same way I do about certain things",75,18,18,18,18,18,4,5,2,4,5,4,2,4,3,3,31,49,56,2,2,1,1,1,2,1,2,1,2,2,6,1,5,2,6,2,5,2,6,5,5,19,"female",1,NA,1,"19",2,NA,0,0,1,0,0,2,6,5,"Same Mean",-1
"80",130,112,118,128,134,110,132,114,126,108,122,106,120,1.99364,0.000481253,1,11,24,1,1,9.9453,110,0.573942,36,"high","high",NA,1,1,NA,1,NA,1,NA,NA,1,NA,19,14,18,15,2,NA,"I eliminated those immediately if they were very different than mine; i wish other Americans feel the same way I do about certain things",75,18,18,18,18,18,4,5,2,4,5,4,2,4,3,3,31,49,56,2,2,1,1,1,2,1,2,1,2,2,6,1,5,2,6,2,5,2,6,5,5,19,"female",1,NA,1,"19",2,NA,0,0,1,0,0,2,6,5,"Different Mean",1
"81",132,112,116,124,126,128,120,104,108,106,110,130,118,1.98894,0.000473555,0,11,25,3,1,9.9453,128,0.962152,45,"low","low",NA,1,1,NA,1,NA,1,NA,NA,1,NA,19,14,18,15,2,NA,"I eliminated those immediately if they were very different than mine; i wish other Americans feel the same way I do about certain things",75,18,18,18,18,18,4,5,2,4,5,4,2,4,3,3,31,49,56,2,2,1,1,1,2,1,2,1,2,2,6,1,5,2,6,2,5,2,6,5,5,19,"female",1,NA,1,"19",2,NA,0,0,1,0,0,2,6,5,"Different Mean",1
"82",135,128,148,134,145,150,150,125,150,127,139,148,139.917,1.99109,0.000291089,1,11,26,1,1,9.78364,130,2.44403,27,"high","high",NA,1,1,NA,1,NA,1,NA,NA,1,NA,19,14,18,15,2,NA,"I eliminated those immediately if they were very different than mine; i wish other Americans feel the same way I do about certain things",75,18,18,18,18,18,4,5,2,4,5,4,2,4,3,3,31,49,56,2,2,1,1,1,2,1,2,1,2,2,6,1,5,2,6,2,5,2,6,5,5,19,"female",1,NA,1,"19",2,NA,0,0,1,0,0,2,6,5,"Different Mean",1
"83",115,111,123,135,139,113,119,133,131,127,137,117,125,1.98782,0.000403705,0,11,27,1,1,9.9453,115,1.86364,32,"high","high",NA,1,1,NA,1,NA,1,NA,NA,1,NA,19,14,18,15,2,NA,"I eliminated those immediately if they were very different than mine; i wish other Americans feel the same way I do about certain things",75,18,18,18,18,18,4,5,2,4,5,4,2,4,3,3,31,49,56,2,2,1,1,1,2,1,2,1,2,2,6,1,5,2,6,2,5,2,6,5,5,19,"female",1,NA,1,"19",2,NA,0,0,1,0,0,2,6,5,"Different Mean",1
"84",121,117,113,109,115,129,111,131,135,137,125,133,123,1.9939,0.000285958,1,11,28,4,1,9.9453,113,3.37467,50,"high","high",NA,1,1,NA,1,NA,1,NA,NA,1,NA,19,14,18,15,2,NA,"I eliminated those immediately if they were very different than mine; i wish other Americans feel the same way I do about certain things",75,18,18,18,18,18,4,5,2,4,5,4,2,4,3,3,31,49,56,2,2,1,1,1,2,1,2,1,2,2,6,1,5,2,6,2,5,2,6,5,5,19,"female",1,NA,1,"19",2,NA,0,0,1,0,0,2,6,5,"Different Mean",1
"85",141,133,117,115,135,137,119,113,121,125,129,139,127,1.98882,0.000318174,0,11,29,1,1,9.9453,127,2.61276,26,"same","same",NA,1,1,NA,1,NA,1,NA,NA,1,NA,19,14,18,15,2,NA,"I eliminated those immediately if they were very different than mine; i wish other Americans feel the same way I do about certain things",75,18,18,18,18,18,4,5,2,4,5,4,2,4,3,3,31,49,56,2,2,1,1,1,2,1,2,1,2,2,6,1,5,2,6,2,5,2,6,5,5,19,"female",1,NA,1,"19",2,NA,0,0,1,0,0,2,6,5,"Same Mean",-1
"86",136,134,110,112,132,118,126,116,130,122,114,138,124,1.9865,0.000289949,1,11,30,3,1,9.9453,114,2.34834,6,"high","high",NA,1,1,NA,1,NA,1,NA,NA,1,NA,19,14,18,15,2,NA,"I eliminated those immediately if they were very different than mine; i wish other Americans feel the same way I do about certain things",75,18,18,18,18,18,4,5,2,4,5,4,2,4,3,3,31,49,56,2,2,1,1,1,2,1,2,1,2,2,6,1,5,2,6,2,5,2,6,5,5,19,"female",1,NA,1,"19",2,NA,0,0,1,0,0,2,6,5,"Different Mean",1
"87",148,135,145,128,139,150,148,150,127,125,134,150,139.917,1.9909,0.000281681,1,11,31,2,1,9.78364,140,1.11026,37,"same","same",NA,1,1,NA,1,NA,1,NA,NA,1,NA,19,14,18,15,2,NA,"I eliminated those immediately if they were very different than mine; i wish other Americans feel the same way I do about certain things",75,18,18,18,18,18,4,5,2,4,5,4,2,4,3,3,31,49,56,2,2,1,1,1,2,1,2,1,2,2,6,1,5,2,6,2,5,2,6,5,5,19,"female",1,NA,1,"19",2,NA,0,0,1,0,0,2,6,5,"Same Mean",-1
"88",148,134,148,139,125,127,145,135,150,150,150,128,139.917,1.99963,0.000206984,1,11,32,2,1,9.78364,140,0.951321,7,"same","same",NA,1,1,NA,1,NA,1,NA,NA,1,NA,19,14,18,15,2,NA,"I eliminated those immediately if they were very different than mine; i wish other Americans feel the same way I do about certain things",75,18,18,18,18,18,4,5,2,4,5,4,2,4,3,3,31,49,56,2,2,1,1,1,2,1,2,1,2,2,6,1,5,2,6,2,5,2,6,5,5,19,"female",1,NA,1,"19",2,NA,0,0,1,0,0,2,6,5,"Same Mean",-1
"89",121,112,106,101,125,101,101,104,126,103,118,102,110,1.98837,0.00034754,1,11,33,2,1,9.89949,120,1.76301,16,"low","low",NA,1,1,NA,1,NA,1,NA,NA,1,NA,19,14,18,15,2,NA,"I eliminated those immediately if they were very different than mine; i wish other Americans feel the same way I do about certain things",75,18,18,18,18,18,4,5,2,4,5,4,2,4,3,3,31,49,56,2,2,1,1,1,2,1,2,1,2,2,6,1,5,2,6,2,5,2,6,5,5,19,"female",1,NA,1,"19",2,NA,0,0,1,0,0,2,6,5,"Different Mean",1
"90",110,120,124,128,112,104,116,106,126,132,130,108,118,1.9951,0.000249465,0,11,35,1,1,9.9453,128,0.92276,12,"low","low",NA,1,1,NA,1,NA,1,NA,NA,1,NA,19,14,18,15,2,NA,"I eliminated those immediately if they were very different than mine; i wish other Americans feel the same way I do about certain things",75,18,18,18,18,18,4,5,2,4,5,4,2,4,3,3,31,49,56,2,2,1,1,1,2,1,2,1,2,2,6,1,5,2,6,2,5,2,6,5,5,19,"female",1,NA,1,"19",2,NA,0,0,1,0,0,2,6,5,"Different Mean",1
"91",130,122,142,118,138,134,126,120,136,140,116,114,128,2.00064,0.000260869,0,11,36,1,1,9.9453,138,1.06724,23,"low","low",NA,1,1,NA,1,NA,1,NA,NA,1,NA,19,14,18,15,2,NA,"I eliminated those immediately if they were very different than mine; i wish other Americans feel the same way I do about certain things",75,18,18,18,18,18,4,5,2,4,5,4,2,4,3,3,31,49,56,2,2,1,1,1,2,1,2,1,2,2,6,1,5,2,6,2,5,2,6,5,5,19,"female",1,NA,1,"19",2,NA,0,0,1,0,0,2,6,5,"Different Mean",1
"92",122,114,128,130,134,112,132,108,118,126,110,106,120,1.99053,0.000199287,1,11,37,3,1,9.9453,110,1.09401,29,"high","high",NA,1,1,NA,1,NA,1,NA,NA,1,NA,19,14,18,15,2,NA,"I eliminated those immediately if they were very different than mine; i wish other Americans feel the same way I do about certain things",75,18,18,18,18,18,4,5,2,4,5,4,2,4,3,3,31,49,56,2,2,1,1,1,2,1,2,1,2,2,6,1,5,2,6,2,5,2,6,5,5,19,"female",1,NA,1,"19",2,NA,0,0,1,0,0,2,6,5,"Different Mean",1
"93",109,129,123,117,121,125,105,103,107,127,113,101,115,1.98751,0.000323876,1,11,38,1,1,9.9453,125,2.79766,25,"low","low",NA,1,1,NA,1,NA,1,NA,NA,1,NA,19,14,18,15,2,NA,"I eliminated those immediately if they were very different than mine; i wish other Americans feel the same way I do about certain things",75,18,18,18,18,18,4,5,2,4,5,4,2,4,3,3,31,49,56,2,2,1,1,1,2,1,2,1,2,2,6,1,5,2,6,2,5,2,6,5,5,19,"female",1,NA,1,"19",2,NA,0,0,1,0,0,2,6,5,"Different Mean",1
"94",139,141,133,117,129,125,123,121,145,137,119,143,131,1.99064,0.000530575,0,11,39,2,1,9.9453,121,1.34405,39,"high","high",NA,1,1,NA,1,NA,1,NA,NA,1,NA,19,14,18,15,2,NA,"I eliminated those immediately if they were very different than mine; i wish other Americans feel the same way I do about certain things",75,18,18,18,18,18,4,5,2,4,5,4,2,4,3,3,31,49,56,2,2,1,1,1,2,1,2,1,2,2,6,1,5,2,6,2,5,2,6,5,5,19,"female",1,NA,1,"19",2,NA,0,0,1,0,0,2,6,5,"Different Mean",1
"95",128,124,118,116,136,114,120,140,112,132,138,134,126,1.99742,0.000212116,1,11,40,1,1,9.9453,136,1.75401,48,"low","low",NA,1,1,NA,1,NA,1,NA,NA,1,NA,19,14,18,15,2,NA,"I eliminated those immediately if they were very different than mine; i wish other Americans feel the same way I do about certain things",75,18,18,18,18,18,4,5,2,4,5,4,2,4,3,3,31,49,56,2,2,1,1,1,2,1,2,1,2,2,6,1,5,2,6,2,5,2,6,5,5,19,"female",1,NA,1,"19",2,NA,0,0,1,0,0,2,6,5,"Different Mean",1
"96",141,139,137,129,119,125,121,135,117,115,133,113,127,1.99916,0.000276264,1,11,41,2,1,9.9453,137,1.00214,1,"low","low",NA,1,1,NA,1,NA,1,NA,NA,1,NA,19,14,18,15,2,NA,"I eliminated those immediately if they were very different than mine; i wish other Americans feel the same way I do about certain things",75,18,18,18,18,18,4,5,2,4,5,4,2,4,3,3,31,49,56,2,2,1,1,1,2,1,2,1,2,2,6,1,5,2,6,2,5,2,6,5,5,19,"female",1,NA,1,"19",2,NA,0,0,1,0,0,2,6,5,"Different Mean",1
"97",128,148,139,145,148,150,150,134,135,125,127,150,139.917,1.99952,0.00025203,1,11,42,3,1,9.78364,140,1.31845,2,"same","same",NA,1,1,NA,1,NA,1,NA,NA,1,NA,19,14,18,15,2,NA,"I eliminated those immediately if they were very different than mine; i wish other Americans feel the same way I do about certain things",75,18,18,18,18,18,4,5,2,4,5,4,2,4,3,3,31,49,56,2,2,1,1,1,2,1,2,1,2,2,6,1,5,2,6,2,5,2,6,5,5,19,"female",1,NA,1,"19",2,NA,0,0,1,0,0,2,6,5,"Same Mean",-1
"98",123,131,135,127,119,137,141,139,121,115,143,117,129,1.99612,0.00061183,1,11,43,3,1,9.9453,139,1.83868,19,"low","low",NA,1,1,NA,1,NA,1,NA,NA,1,NA,19,14,18,15,2,NA,"I eliminated those immediately if they were very different than mine; i wish other Americans feel the same way I do about certain things",75,18,18,18,18,18,4,5,2,4,5,4,2,4,3,3,31,49,56,2,2,1,1,1,2,1,2,1,2,2,6,1,5,2,6,2,5,2,6,5,5,19,"female",1,NA,1,"19",2,NA,0,0,1,0,0,2,6,5,"Different Mean",1
"99",114,132,106,128,118,110,126,134,130,108,112,122,120,1.98442,0.000393441,1,11,44,2,1,9.9453,110,1.71708,43,"high","high",NA,1,1,NA,1,NA,1,NA,NA,1,NA,19,14,18,15,2,NA,"I eliminated those immediately if they were very different than mine; i wish other Americans feel the same way I do about certain things",75,18,18,18,18,18,4,5,2,4,5,4,2,4,3,3,31,49,56,2,2,1,1,1,2,1,2,1,2,2,6,1,5,2,6,2,5,2,6,5,5,19,"female",1,NA,1,"19",2,NA,0,0,1,0,0,2,6,5,"Different Mean",1
"100",150,126,146,123,133,148,125,137,148,132,143,146,138.083,1.98924,0.000351246,1,11,46,3,1,9.98598,128,3.24593,35,"high","high",NA,1,1,NA,1,NA,1,NA,NA,1,NA,19,14,18,15,2,NA,"I eliminated those immediately if they were very different than mine; i wish other Americans feel the same way I do about certain things",75,18,18,18,18,18,4,5,2,4,5,4,2,4,3,3,31,49,56,2,2,1,1,1,2,1,2,1,2,2,6,1,5,2,6,2,5,2,6,5,5,19,"female",1,NA,1,"19",2,NA,0,0,1,0,0,2,6,5,"Different Mean",1
"101",144,140,122,118,120,128,124,142,132,136,116,138,130,1.99229,0.00222038,1,12,1,3,1,9.9453,140,9.08028,47,"low","low",NA,1,NA,1,1,NA,1,NA,NA,1,NA,17,16,18,15,1,"Almost all the responses were of similar magnitude",NA,63,17,17,17,17,17,5,3,5,4,4,4,4,4,4,4,95,76,75,2,2,1,1,1,2,1,1,2,1,2,6,2,6,2,6,2,6,3,7,2,3,21,"male",1,NA,1,"N/A",3,"Midwest",0,0,0,1,0,5,4,4,"Different Mean",1
"102",150,148,150,128,150,134,139,135,127,148,125,145,139.917,2.00039,0.00068396,1,12,12,2,1,9.78364,140,4.64989,41,"same","same",NA,1,NA,1,1,NA,1,NA,NA,1,NA,17,16,18,15,1,"Almost all the responses were of similar magnitude",NA,63,17,17,17,17,17,5,3,5,4,4,4,4,4,4,4,95,76,75,2,2,1,1,1,2,1,1,2,1,2,6,2,6,2,6,2,6,3,7,2,3,21,"male",1,NA,1,"N/A",3,"Midwest",0,0,0,1,0,5,4,4,"Same Mean",-1
"103",114,136,130,140,138,116,134,118,122,120,142,126,128,1.98504,0.00054255,0,12,23,1,1,9.9453,128,4.78341,14,"same","same",NA,1,NA,1,1,NA,1,NA,NA,1,NA,17,16,18,15,1,"Almost all the responses were of similar magnitude",NA,63,17,17,17,17,17,5,3,5,4,4,4,4,4,4,4,95,76,75,2,2,1,1,1,2,1,1,2,1,2,6,2,6,2,6,2,6,3,7,2,3,21,"male",1,NA,1,"N/A",3,"Midwest",0,0,0,1,0,5,4,4,"Same Mean",-1
"104",120,118,116,128,142,124,122,140,144,132,136,138,130,1.99579,0.000569349,0,12,34,4,1,9.9453,140,3.33912,10,"low","low",NA,1,NA,1,1,NA,1,NA,NA,1,NA,17,16,18,15,1,"Almost all the responses were of similar magnitude",NA,63,17,17,17,17,17,5,3,5,4,4,4,4,4,4,4,95,76,75,2,2,1,1,1,2,1,1,2,1,2,6,2,6,2,6,2,6,3,7,2,3,21,"male",1,NA,1,"N/A",3,"Midwest",0,0,0,1,0,5,4,4,"Different Mean",1
"105",137,121,133,115,139,117,119,129,135,113,141,125,127,1.99744,0.000705343,1,12,45,1,1,9.9453,137,1.32059,25,"low","low",NA,1,NA,1,1,NA,1,NA,NA,1,NA,17,16,18,15,1,"Almost all the responses were of similar magnitude",NA,63,17,17,17,17,17,5,3,5,4,4,4,4,4,4,4,95,76,75,2,2,1,1,1,2,1,1,2,1,2,6,2,6,2,6,2,6,3,7,2,3,21,"male",1,NA,1,"N/A",3,"Midwest",0,0,0,1,0,5,4,4,"Different Mean",1
"106",122,128,120,132,144,116,136,142,140,124,138,118,130,2.00013,0.000344118,1,12,47,4,1,9.9453,140,6.66958,27,"low","low",NA,1,NA,1,1,NA,1,NA,NA,1,NA,17,16,18,15,1,"Almost all the responses were of similar magnitude",NA,63,17,17,17,17,17,5,3,5,4,4,4,4,4,4,4,95,76,75,2,2,1,1,1,2,1,1,2,1,2,6,2,6,2,6,2,6,3,7,2,3,21,"male",1,NA,1,"N/A",3,"Midwest",0,0,0,1,0,5,4,4,"Different Mean",1
"107",128,124,132,142,138,118,140,136,122,144,116,120,130,1.99508,0.000234639,1,12,48,3,1,9.9453,140,2.35664,20,"low","low",NA,1,NA,1,1,NA,1,NA,NA,1,NA,17,16,18,15,1,"Almost all the responses were of similar magnitude",NA,63,17,17,17,17,17,5,3,5,4,4,4,4,4,4,4,95,76,75,2,2,1,1,1,2,1,1,2,1,2,6,2,6,2,6,2,6,3,7,2,3,21,"male",1,NA,1,"N/A",3,"Midwest",0,0,0,1,0,5,4,4,"Different Mean",1
"108",136,116,122,120,138,140,124,128,118,142,132,144,130,1.99053,0.00036094,0,12,49,1,1,9.9453,140,2.66132,6,"low","low",NA,1,NA,1,1,NA,1,NA,NA,1,NA,17,16,18,15,1,"Almost all the responses were of similar magnitude",NA,63,17,17,17,17,17,5,3,5,4,4,4,4,4,4,4,95,76,75,2,2,1,1,1,2,1,1,2,1,2,6,2,6,2,6,2,6,3,7,2,3,21,"male",1,NA,1,"N/A",3,"Midwest",0,0,0,1,0,5,4,4,"Different Mean",1
"109",138,124,118,120,116,144,140,128,136,122,142,132,130,1.99752,0.000212971,1,12,50,3,1,9.9453,140,6.60537,40,"low","low",NA,1,NA,1,1,NA,1,NA,NA,1,NA,17,16,18,15,1,"Almost all the responses were of similar magnitude",NA,63,17,17,17,17,17,5,3,5,4,4,4,4,4,4,4,95,76,75,2,2,1,1,1,2,1,1,2,1,2,6,2,6,2,6,2,6,3,7,2,3,21,"male",1,NA,1,"N/A",3,"Midwest",0,0,0,1,0,5,4,4,"Different Mean",1
"110",144,140,124,132,138,136,118,128,116,120,122,142,130,1.9848,0.000201282,1,12,2,1,1,9.9453,140,4.43406,1,"low","low",NA,1,NA,1,1,NA,1,NA,NA,1,NA,17,16,18,15,1,"Almost all the responses were of similar magnitude",NA,63,17,17,17,17,17,5,3,5,4,4,4,4,4,4,4,95,76,75,2,2,1,1,1,2,1,1,2,1,2,6,2,6,2,6,2,6,3,7,2,3,21,"male",1,NA,1,"N/A",3,"Midwest",0,0,0,1,0,5,4,4,"Different Mean",1
"111",150,128,127,134,139,148,150,125,135,145,148,150,139.917,1.99827,0.000395437,1,12,3,3,1,9.78364,140,3.03687,30,"same","same",NA,1,NA,1,1,NA,1,NA,NA,1,NA,17,16,18,15,1,"Almost all the responses were of similar magnitude",NA,63,17,17,17,17,17,5,3,5,4,4,4,4,4,4,4,95,76,75,2,2,1,1,1,2,1,1,2,1,2,6,2,6,2,6,2,6,3,7,2,3,21,"male",1,NA,1,"N/A",3,"Midwest",0,0,0,1,0,5,4,4,"Same Mean",-1
"112",131,123,119,111,129,113,109,107,135,127,133,115,121,1.99308,0.00068339,1,12,4,3,1,9.9453,111,0.606884,39,"high","high",NA,1,NA,1,1,NA,1,NA,NA,1,NA,17,16,18,15,1,"Almost all the responses were of similar magnitude",NA,63,17,17,17,17,17,5,3,5,4,4,4,4,4,4,4,95,76,75,2,2,1,1,1,2,1,1,2,1,2,6,2,6,2,6,2,6,3,7,2,3,21,"male",1,NA,1,"N/A",3,"Midwest",0,0,0,1,0,5,4,4,"Different Mean",1
"113",132,136,124,128,142,116,120,138,122,140,118,144,130,1.98499,0.000255167,1,12,5,4,1,9.9453,140,2.08333,31,"low","low",NA,1,NA,1,1,NA,1,NA,NA,1,NA,17,16,18,15,1,"Almost all the responses were of similar magnitude",NA,63,17,17,17,17,17,5,3,5,4,4,4,4,4,4,4,95,76,75,2,2,1,1,1,2,1,1,2,1,2,6,2,6,2,6,2,6,3,7,2,3,21,"male",1,NA,1,"N/A",3,"Midwest",0,0,0,1,0,5,4,4,"Different Mean",1
"114",147,142,136,147,125,145,145,122,149,131,124,132,137.083,1.98615,0.000389165,1,12,6,4,1,9.98598,137,4.21606,37,"same","same",NA,1,NA,1,1,NA,1,NA,NA,1,NA,17,16,18,15,1,"Almost all the responses were of similar magnitude",NA,63,17,17,17,17,17,5,3,5,4,4,4,4,4,4,4,95,76,75,2,2,1,1,1,2,1,1,2,1,2,6,2,6,2,6,2,6,3,7,2,3,21,"male",1,NA,1,"N/A",3,"Midwest",0,0,0,1,0,5,4,4,"Same Mean",-1
"115",112,126,118,138,116,132,122,110,130,114,136,134,124,1.99709,0.000530575,0,12,7,2,1,9.9453,134,1.32087,33,"low","low",NA,1,NA,1,1,NA,1,NA,NA,1,NA,17,16,18,15,1,"Almost all the responses were of similar magnitude",NA,63,17,17,17,17,17,5,3,5,4,4,4,4,4,4,4,95,76,75,2,2,1,1,1,2,1,1,2,1,2,6,2,6,2,6,2,6,3,7,2,3,21,"male",1,NA,1,"N/A",3,"Midwest",0,0,0,1,0,5,4,4,"Different Mean",1
"116",116,128,134,130,112,136,108,110,132,120,114,124,122,1.98931,0.00048667,1,12,8,3,1,9.9453,132,1.19528,8,"low","low",NA,1,NA,1,1,NA,1,NA,NA,1,NA,17,16,18,15,1,"Almost all the responses were of similar magnitude",NA,63,17,17,17,17,17,5,3,5,4,4,4,4,4,4,4,95,76,75,2,2,1,1,1,2,1,1,2,1,2,6,2,6,2,6,2,6,3,7,2,3,21,"male",1,NA,1,"N/A",3,"Midwest",0,0,0,1,0,5,4,4,"Different Mean",1
"117",112,106,125,102,126,104,118,103,101,121,101,101,110,1.99286,0.000428794,1,12,9,2,1,9.89949,110,1.00837,34,"same","same",NA,1,NA,1,1,NA,1,NA,NA,1,NA,17,16,18,15,1,"Almost all the responses were of similar magnitude",NA,63,17,17,17,17,17,5,3,5,4,4,4,4,4,4,4,95,76,75,2,2,1,1,1,2,1,1,2,1,2,6,2,6,2,6,2,6,3,7,2,3,21,"male",1,NA,1,"N/A",3,"Midwest",0,0,0,1,0,5,4,4,"Same Mean",-1
"118",118,103,101,126,125,106,121,104,112,101,102,101,110,1.99329,0.000536563,1,12,10,1,1,9.89949,110,1.80812,5,"same","same",NA,1,NA,1,1,NA,1,NA,NA,1,NA,17,16,18,15,1,"Almost all the responses were of similar magnitude",NA,63,17,17,17,17,17,5,3,5,4,4,4,4,4,4,4,95,76,75,2,2,1,1,1,2,1,1,2,1,2,6,2,6,2,6,2,6,3,7,2,3,21,"male",1,NA,1,"N/A",3,"Midwest",0,0,0,1,0,5,4,4,"Same Mean",-1
"119",120,136,128,116,132,144,124,138,142,122,118,140,130,1.99339,0.000314183,1,12,11,3,1,9.9453,140,7.42645,42,"low","low",NA,1,NA,1,1,NA,1,NA,NA,1,NA,17,16,18,15,1,"Almost all the responses were of similar magnitude",NA,63,17,17,17,17,17,5,3,5,4,4,4,4,4,4,4,95,76,75,2,2,1,1,1,2,1,1,2,1,2,6,2,6,2,6,2,6,3,7,2,3,21,"male",1,NA,1,"N/A",3,"Midwest",0,0,0,1,0,5,4,4,"Different Mean",1
"120",120,132,130,112,116,134,110,136,114,124,128,108,122,1.99897,0.000644901,0,12,13,1,1,9.9453,122,5.33677,19,"same","same",NA,1,NA,1,1,NA,1,NA,NA,1,NA,17,16,18,15,1,"Almost all the responses were of similar magnitude",NA,63,17,17,17,17,17,5,3,5,4,4,4,4,4,4,4,95,76,75,2,2,1,1,1,2,1,1,2,1,2,6,2,6,2,6,2,6,3,7,2,3,21,"male",1,NA,1,"N/A",3,"Midwest",0,0,0,1,0,5,4,4,"Same Mean",-1
"121",130,118,132,114,112,116,126,134,136,122,138,110,124,1.98849,0.000266856,0,12,14,1,1,9.9453,124,2.7966,11,"same","same",NA,1,NA,1,1,NA,1,NA,NA,1,NA,17,16,18,15,1,"Almost all the responses were of similar magnitude",NA,63,17,17,17,17,17,5,3,5,4,4,4,4,4,4,4,95,76,75,2,2,1,1,1,2,1,1,2,1,2,6,2,6,2,6,2,6,3,7,2,3,21,"male",1,NA,1,"N/A",3,"Midwest",0,0,0,1,0,5,4,4,"Same Mean",-1
"122",144,124,140,122,138,118,132,116,142,128,120,136,130,1.98746,0.000576477,1,12,15,2,1,9.9453,140,2.49751,50,"low","low",NA,1,NA,1,1,NA,1,NA,NA,1,NA,17,16,18,15,1,"Almost all the responses were of similar magnitude",NA,63,17,17,17,17,17,5,3,5,4,4,4,4,4,4,4,95,76,75,2,2,1,1,1,2,1,1,2,1,2,6,2,6,2,6,2,6,3,7,2,3,21,"male",1,NA,1,"N/A",3,"Midwest",0,0,0,1,0,5,4,4,"Different Mean",1
"123",142,136,144,122,132,118,124,116,120,138,140,128,130,1.99535,0.000248324,1,12,16,1,1,9.9453,140,2.03955,21,"low","low",NA,1,NA,1,1,NA,1,NA,NA,1,NA,17,16,18,15,1,"Almost all the responses were of similar magnitude",NA,63,17,17,17,17,17,5,3,5,4,4,4,4,4,4,4,95,76,75,2,2,1,1,1,2,1,1,2,1,2,6,2,6,2,6,2,6,3,7,2,3,21,"male",1,NA,1,"N/A",3,"Midwest",0,0,0,1,0,5,4,4,"Different Mean",1
"124",125,139,127,150,148,135,128,150,148,145,150,134,139.917,1.99471,0.000283392,1,12,17,3,1,9.78364,140,2.22361,16,"same","same",NA,1,NA,1,1,NA,1,NA,NA,1,NA,17,16,18,15,1,"Almost all the responses were of similar magnitude",NA,63,17,17,17,17,17,5,3,5,4,4,4,4,4,4,4,95,76,75,2,2,1,1,1,2,1,1,2,1,2,6,2,6,2,6,2,6,3,7,2,3,21,"male",1,NA,1,"N/A",3,"Midwest",0,0,0,1,0,5,4,4,"Same Mean",-1
"125",139,119,137,117,115,123,127,113,111,133,135,131,125,1.99823,0.000575336,1,12,18,2,1,9.9453,135,0.936206,46,"low","low",NA,1,NA,1,1,NA,1,NA,NA,1,NA,17,16,18,15,1,"Almost all the responses were of similar magnitude",NA,63,17,17,17,17,17,5,3,5,4,4,4,4,4,4,4,95,76,75,2,2,1,1,1,2,1,1,2,1,2,6,2,6,2,6,2,6,3,7,2,3,21,"male",1,NA,1,"N/A",3,"Midwest",0,0,0,1,0,5,4,4,"Different Mean",1
"126",142,136,144,116,140,132,122,124,138,128,118,120,130,1.98786,0.000226656,1,12,19,1,1,9.9453,140,1.98034,32,"low","low",NA,1,NA,1,1,NA,1,NA,NA,1,NA,17,16,18,15,1,"Almost all the responses were of similar magnitude",NA,63,17,17,17,17,17,5,3,5,4,4,4,4,4,4,4,95,76,75,2,2,1,1,1,2,1,1,2,1,2,6,2,6,2,6,2,6,3,7,2,3,21,"male",1,NA,1,"N/A",3,"Midwest",0,0,0,1,0,5,4,4,"Different Mean",1
"127",131,123,113,111,115,137,127,133,117,135,119,139,125,1.98812,0.000526869,1,12,20,1,1,9.9453,135,1.36322,24,"low","low",NA,1,NA,1,1,NA,1,NA,NA,1,NA,17,16,18,15,1,"Almost all the responses were of similar magnitude",NA,63,17,17,17,17,17,5,3,5,4,4,4,4,4,4,4,95,76,75,2,2,1,1,1,2,1,1,2,1,2,6,2,6,2,6,2,6,3,7,2,3,21,"male",1,NA,1,"N/A",3,"Midwest",0,0,0,1,0,5,4,4,"Different Mean",1
"128",118,132,116,142,136,128,138,140,124,120,144,122,130,1.98623,0.000194725,0,12,21,1,1,9.9453,140,2.68222,15,"low","low",NA,1,NA,1,1,NA,1,NA,NA,1,NA,17,16,18,15,1,"Almost all the responses were of similar magnitude",NA,63,17,17,17,17,17,5,3,5,4,4,4,4,4,4,4,95,76,75,2,2,1,1,1,2,1,1,2,1,2,6,2,6,2,6,2,6,3,7,2,3,21,"male",1,NA,1,"N/A",3,"Midwest",0,0,0,1,0,5,4,4,"Different Mean",1
"129",138,134,149,127,124,133,147,149,126,147,150,144,139,1.98503,0.000419385,1,12,22,3,1,9.88111,139,1.13282,7,"same","same",NA,1,NA,1,1,NA,1,NA,NA,1,NA,17,16,18,15,1,"Almost all the responses were of similar magnitude",NA,63,17,17,17,17,17,5,3,5,4,4,4,4,4,4,4,95,76,75,2,2,1,1,1,2,1,1,2,1,2,6,2,6,2,6,2,6,3,7,2,3,21,"male",1,NA,1,"N/A",3,"Midwest",0,0,0,1,0,5,4,4,"Same Mean",-1
"130",135,121,115,139,119,137,131,127,117,123,143,141,129,1.99666,0.000368067,1,12,24,1,1,9.9453,139,1.48794,35,"low","low",NA,1,NA,1,1,NA,1,NA,NA,1,NA,17,16,18,15,1,"Almost all the responses were of similar magnitude",NA,63,17,17,17,17,17,5,3,5,4,4,4,4,4,4,4,95,76,75,2,2,1,1,1,2,1,1,2,1,2,6,2,6,2,6,2,6,3,7,2,3,21,"male",1,NA,1,"N/A",3,"Midwest",0,0,0,1,0,5,4,4,"Different Mean",1
"131",106,105,130,105,122,125,116,108,110,107,129,105,114,1.99611,0.000363791,1,12,25,1,1,9.89949,124,0.971662,36,"low","low",NA,1,NA,1,1,NA,1,NA,NA,1,NA,17,16,18,15,1,"Almost all the responses were of similar magnitude",NA,63,17,17,17,17,17,5,3,5,4,4,4,4,4,4,4,95,76,75,2,2,1,1,1,2,1,1,2,1,2,6,2,6,2,6,2,6,3,7,2,3,21,"male",1,NA,1,"N/A",3,"Midwest",0,0,0,1,0,5,4,4,"Different Mean",1
"132",138,120,118,144,128,116,142,132,122,124,140,136,130,2.00004,0.000203278,1,12,26,1,1,9.9453,140,2.16807,2,"low","low",NA,1,NA,1,1,NA,1,NA,NA,1,NA,17,16,18,15,1,"Almost all the responses were of similar magnitude",NA,63,17,17,17,17,17,5,3,5,4,4,4,4,4,4,4,95,76,75,2,2,1,1,1,2,1,1,2,1,2,6,2,6,2,6,2,6,3,7,2,3,21,"male",1,NA,1,"N/A",3,"Midwest",0,0,0,1,0,5,4,4,"Different Mean",1
"133",122,124,142,145,125,149,147,132,136,147,145,131,137.083,1.99951,0.000295936,0,12,27,2,1,9.98598,127,0.901458,45,"high","high",NA,1,NA,1,1,NA,1,NA,NA,1,NA,17,16,18,15,1,"Almost all the responses were of similar magnitude",NA,63,17,17,17,17,17,5,3,5,4,4,4,4,4,4,4,95,76,75,2,2,1,1,1,2,1,1,2,1,2,6,2,6,2,6,2,6,3,7,2,3,21,"male",1,NA,1,"N/A",3,"Midwest",0,0,0,1,0,5,4,4,"Different Mean",1
"134",145,147,141,129,127,123,143,149,133,137,121,125,135,1.99709,0.000451887,0,12,28,2,1,9.9453,135,1.65419,38,"same","same",NA,1,NA,1,1,NA,1,NA,NA,1,NA,17,16,18,15,1,"Almost all the responses were of similar magnitude",NA,63,17,17,17,17,17,5,3,5,4,4,4,4,4,4,4,95,76,75,2,2,1,1,1,2,1,1,2,1,2,6,2,6,2,6,2,6,3,7,2,3,21,"male",1,NA,1,"N/A",3,"Midwest",0,0,0,1,0,5,4,4,"Same Mean",-1
"135",133,119,113,139,137,125,135,141,129,121,115,117,127,1.99156,0.000227512,1,12,29,2,1,9.9453,137,1.10971,12,"low","low",NA,1,NA,1,1,NA,1,NA,NA,1,NA,17,16,18,15,1,"Almost all the responses were of similar magnitude",NA,63,17,17,17,17,17,5,3,5,4,4,4,4,4,4,4,95,76,75,2,2,1,1,1,2,1,1,2,1,2,6,2,6,2,6,2,6,3,7,2,3,21,"male",1,NA,1,"N/A",3,"Midwest",0,0,0,1,0,5,4,4,"Different Mean",1
"136",127,107,111,133,109,131,113,135,115,129,119,123,121,1.98406,0.000646042,0,12,30,4,1,9.9453,131,1.60057,44,"low","low",NA,1,NA,1,1,NA,1,NA,NA,1,NA,17,16,18,15,1,"Almost all the responses were of similar magnitude",NA,63,17,17,17,17,17,5,3,5,4,4,4,4,4,4,4,95,76,75,2,2,1,1,1,2,1,1,2,1,2,6,2,6,2,6,2,6,3,7,2,3,21,"male",1,NA,1,"N/A",3,"Midwest",0,0,0,1,0,5,4,4,"Different Mean",1
"137",125,123,105,107,121,101,113,117,109,127,129,103,115,1.99413,0.000503491,1,12,31,3,1,9.9453,115,0.790244,22,"same","same",NA,1,NA,1,1,NA,1,NA,NA,1,NA,17,16,18,15,1,"Almost all the responses were of similar magnitude",NA,63,17,17,17,17,17,5,3,5,4,4,4,4,4,4,4,95,76,75,2,2,1,1,1,2,1,1,2,1,2,6,2,6,2,6,2,6,3,7,2,3,21,"male",1,NA,1,"N/A",3,"Midwest",0,0,0,1,0,5,4,4,"Same Mean",-1
"138",150,150,148,148,135,128,127,125,145,134,139,150,139.917,1.9903,0.000412543,1,12,32,4,1,9.78364,140,2.46109,18,"same","same",NA,1,NA,1,1,NA,1,NA,NA,1,NA,17,16,18,15,1,"Almost all the responses were of similar magnitude",NA,63,17,17,17,17,17,5,3,5,4,4,4,4,4,4,4,95,76,75,2,2,1,1,1,2,1,1,2,1,2,6,2,6,2,6,2,6,3,7,2,3,21,"male",1,NA,1,"N/A",3,"Midwest",0,0,0,1,0,5,4,4,"Same Mean",-1
"139",138,116,144,128,122,124,120,132,142,118,140,136,130,1.98943,0.000339272,1,12,33,4,1,9.9453,140,2.04531,3,"low","low",NA,1,NA,1,1,NA,1,NA,NA,1,NA,17,16,18,15,1,"Almost all the responses were of similar magnitude",NA,63,17,17,17,17,17,5,3,5,4,4,4,4,4,4,4,95,76,75,2,2,1,1,1,2,1,1,2,1,2,6,2,6,2,6,2,6,3,7,2,3,21,"male",1,NA,1,"N/A",3,"Midwest",0,0,0,1,0,5,4,4,"Different Mean",1
"140",133,146,137,143,148,126,146,123,150,125,132,148,138.083,1.98414,0.000336706,0,12,35,4,1,9.98598,138,1.2337,23,"same","same",NA,1,NA,1,1,NA,1,NA,NA,1,NA,17,16,18,15,1,"Almost all the responses were of similar magnitude",NA,63,17,17,17,17,17,5,3,5,4,4,4,4,4,4,4,95,76,75,2,2,1,1,1,2,1,1,2,1,2,6,2,6,2,6,2,6,3,7,2,3,21,"male",1,NA,1,"N/A",3,"Midwest",0,0,0,1,0,5,4,4,"Same Mean",-1
"141",142,114,138,126,130,116,120,136,122,134,118,140,128,1.99412,0.000348395,0,12,36,4,1,9.9453,138,0.757016,26,"low","low",NA,1,NA,1,1,NA,1,NA,NA,1,NA,17,16,18,15,1,"Almost all the responses were of similar magnitude",NA,63,17,17,17,17,17,5,3,5,4,4,4,4,4,4,4,95,76,75,2,2,1,1,1,2,1,1,2,1,2,6,2,6,2,6,2,6,3,7,2,3,21,"male",1,NA,1,"N/A",3,"Midwest",0,0,0,1,0,5,4,4,"Different Mean",1
"142",129,123,119,137,139,121,145,143,117,125,141,133,131,1.99494,0.000467568,1,12,37,3,1,9.9453,121,0.689502,29,"high","high",NA,1,NA,1,1,NA,1,NA,NA,1,NA,17,16,18,15,1,"Almost all the responses were of similar magnitude",NA,63,17,17,17,17,17,5,3,5,4,4,4,4,4,4,4,95,76,75,2,2,1,1,1,2,1,1,2,1,2,6,2,6,2,6,2,6,3,7,2,3,21,"male",1,NA,1,"N/A",3,"Midwest",0,0,0,1,0,5,4,4,"Different Mean",1
"143",120,122,140,124,144,118,134,130,146,138,142,126,132,1.985,0.000223805,1,12,38,4,1,9.9453,132,0.866254,4,"same","same",NA,1,NA,1,1,NA,1,NA,NA,1,NA,17,16,18,15,1,"Almost all the responses were of similar magnitude",NA,63,17,17,17,17,17,5,3,5,4,4,4,4,4,4,4,95,76,75,2,2,1,1,1,2,1,1,2,1,2,6,2,6,2,6,2,6,3,7,2,3,21,"male",1,NA,1,"N/A",3,"Midwest",0,0,0,1,0,5,4,4,"Same Mean",-1
"144",135,125,129,117,113,139,133,121,141,115,137,119,127,1.99044,0.000370063,1,12,39,1,1,9.9453,137,2.42783,13,"low","low",NA,1,NA,1,1,NA,1,NA,NA,1,NA,17,16,18,15,1,"Almost all the responses were of similar magnitude",NA,63,17,17,17,17,17,5,3,5,4,4,4,4,4,4,4,95,76,75,2,2,1,1,1,2,1,1,2,1,2,6,2,6,2,6,2,6,3,7,2,3,21,"male",1,NA,1,"N/A",3,"Midwest",0,0,0,1,0,5,4,4,"Different Mean",1
"145",145,147,132,125,136,147,124,122,145,131,142,149,137.083,1.9908,0.000294511,0,12,40,4,1,9.98598,137,1.09371,48,"same","same",NA,1,NA,1,1,NA,1,NA,NA,1,NA,17,16,18,15,1,"Almost all the responses were of similar magnitude",NA,63,17,17,17,17,17,5,3,5,4,4,4,4,4,4,4,95,76,75,2,2,1,1,1,2,1,1,2,1,2,6,2,6,2,6,2,6,3,7,2,3,21,"male",1,NA,1,"N/A",3,"Midwest",0,0,0,1,0,5,4,4,"Same Mean",-1
"146",144,148,132,142,124,146,140,122,120,126,128,136,134,1.98718,0.000658586,1,12,41,1,1,9.9453,134,1.18081,28,"same","same",NA,1,NA,1,1,NA,1,NA,NA,1,NA,17,16,18,15,1,"Almost all the responses were of similar magnitude",NA,63,17,17,17,17,17,5,3,5,4,4,4,4,4,4,4,95,76,75,2,2,1,1,1,2,1,1,2,1,2,6,2,6,2,6,2,6,3,7,2,3,21,"male",1,NA,1,"N/A",3,"Midwest",0,0,0,1,0,5,4,4,"Same Mean",-1
"147",128,148,125,150,150,148,135,139,127,145,134,150,139.917,1.99032,0.00025089,1,12,42,2,1,9.78364,140,1.92775,17,"same","same",NA,1,NA,1,1,NA,1,NA,NA,1,NA,17,16,18,15,1,"Almost all the responses were of similar magnitude",NA,63,17,17,17,17,17,5,3,5,4,4,4,4,4,4,4,95,76,75,2,2,1,1,1,2,1,1,2,1,2,6,2,6,2,6,2,6,3,7,2,3,21,"male",1,NA,1,"N/A",3,"Midwest",0,0,0,1,0,5,4,4,"Same Mean",-1
"148",118,142,140,116,132,120,124,138,128,144,136,122,130,2.0005,0.000321025,0,12,43,1,1,9.9453,140,1.26746,49,"low","low",NA,1,NA,1,1,NA,1,NA,NA,1,NA,17,16,18,15,1,"Almost all the responses were of similar magnitude",NA,63,17,17,17,17,17,5,3,5,4,4,4,4,4,4,4,95,76,75,2,2,1,1,1,2,1,1,2,1,2,6,2,6,2,6,2,6,3,7,2,3,21,"male",1,NA,1,"N/A",3,"Midwest",0,0,0,1,0,5,4,4,"Different Mean",1
"149",119,141,117,139,137,121,123,145,129,143,133,125,131,1.98677,0.00024975,1,12,44,3,1,9.9453,131,1.04783,43,"same","same",NA,1,NA,1,1,NA,1,NA,NA,1,NA,17,16,18,15,1,"Almost all the responses were of similar magnitude",NA,63,17,17,17,17,17,5,3,5,4,4,4,4,4,4,4,95,76,75,2,2,1,1,1,2,1,1,2,1,2,6,2,6,2,6,2,6,3,7,2,3,21,"male",1,NA,1,"N/A",3,"Midwest",0,0,0,1,0,5,4,4,"Same Mean",-1
"150",127,115,119,139,121,131,123,141,143,135,117,137,129,1.99081,0.0003196,0,12,46,1,1,9.9453,119,0.826964,9,"high","high",NA,1,NA,1,1,NA,1,NA,NA,1,NA,17,16,18,15,1,"Almost all the responses were of similar magnitude",NA,63,17,17,17,17,17,5,3,5,4,4,4,4,4,4,4,95,76,75,2,2,1,1,1,2,1,1,2,1,2,6,2,6,2,6,2,6,3,7,2,3,21,"male",1,NA,1,"N/A",3,"Midwest",0,0,0,1,0,5,4,4,"Different Mean",1
"151",148,150,139,134,150,128,150,148,145,135,125,127,139.917,2.0003,0.00228253,0,13,1,3,1,9.78364,140,1.88615,5,"same","same",NA,1,1,NA,NA,1,1,NA,1,NA,NA,18,15,17,15,1,"I just chose the words I most associated with",NA,50,16,16,15,15,16,3,3,3,5,4,5,2,3,4,4,50,17,30,2,2,1,2,1,2,2,2,2,2,2,2,1,6,6,7,7,7,2,6,5,1,26,"female",1,NA,1,NA,2,NA,0,0,1,0,0,5,2,2.6,"Same Mean",-1
"152",128,132,122,120,136,124,144,140,142,116,138,118,130,1.99926,0.000745542,1,13,12,4,1,9.9453,140,1.71726,33,"low","low",NA,1,1,NA,NA,1,1,NA,1,NA,NA,18,15,17,15,1,"I just chose the words I most associated with",NA,50,16,16,15,15,16,3,3,3,5,4,5,2,3,4,4,50,17,30,2,2,1,2,1,2,2,2,2,2,2,2,1,6,6,7,7,7,2,6,5,1,26,"female",1,NA,1,NA,2,NA,0,0,1,0,0,5,2,2.6,"Different Mean",1
"153",142,120,122,134,116,136,140,114,130,118,126,138,128,1.99343,0.000735564,1,13,23,2,1,9.9453,138,1.3243,3,"low","low",NA,1,1,NA,NA,1,1,NA,1,NA,NA,18,15,17,15,1,"I just chose the words I most associated with",NA,50,16,16,15,15,16,3,3,3,5,4,5,2,3,4,4,50,17,30,2,2,1,2,1,2,2,2,2,2,2,2,1,6,6,7,7,7,2,6,5,1,26,"female",1,NA,1,NA,2,NA,0,0,1,0,0,5,2,2.6,"Different Mean",1
"154",134,144,142,138,146,130,122,126,150,128,124,148,136,1.9931,0.000392016,1,13,34,4,1,9.9453,126,1.55685,30,"high","high",NA,1,1,NA,NA,1,1,NA,1,NA,NA,18,15,17,15,1,"I just chose the words I most associated with",NA,50,16,16,15,15,16,3,3,3,5,4,5,2,3,4,4,50,17,30,2,2,1,2,1,2,2,2,2,2,2,2,1,6,6,7,7,7,2,6,5,1,26,"female",1,NA,1,NA,2,NA,0,0,1,0,0,5,2,2.6,"Different Mean",1
"155",135,148,127,139,150,148,125,128,150,150,134,145,139.917,1.99055,0.000675978,1,13,45,1,1,9.78364,140,1.59387,15,"same","same",NA,1,1,NA,NA,1,1,NA,1,NA,NA,18,15,17,15,1,"I just chose the words I most associated with",NA,50,16,16,15,15,16,3,3,3,5,4,5,2,3,4,4,50,17,30,2,2,1,2,1,2,2,2,2,2,2,2,1,6,6,7,7,7,2,6,5,1,26,"female",1,NA,1,NA,2,NA,0,0,1,0,0,5,2,2.6,"Same Mean",-1
"156",118,136,122,128,124,142,144,140,116,138,120,132,130,1.99887,0.000354097,0,13,47,2,1,9.9453,140,1.66926,8,"low","low",NA,1,1,NA,NA,1,1,NA,1,NA,NA,18,15,17,15,1,"I just chose the words I most associated with",NA,50,16,16,15,15,16,3,3,3,5,4,5,2,3,4,4,50,17,30,2,2,1,2,1,2,2,2,2,2,2,2,1,6,6,7,7,7,2,6,5,1,26,"female",1,NA,1,NA,2,NA,0,0,1,0,0,5,2,2.6,"Different Mean",1
"157",124,120,130,108,110,128,114,116,132,112,134,136,122,1.99414,0.00040513,1,13,48,2,1,9.9453,112,1.4236,28,"high","high",NA,1,1,NA,NA,1,1,NA,1,NA,NA,18,15,17,15,1,"I just chose the words I most associated with",NA,50,16,16,15,15,16,3,3,3,5,4,5,2,3,4,4,50,17,30,2,2,1,2,1,2,2,2,2,2,2,2,1,6,6,7,7,7,2,6,5,1,26,"female",1,NA,1,NA,2,NA,0,0,1,0,0,5,2,2.6,"Different Mean",1
"158",148,127,128,125,139,135,134,148,150,150,145,150,139.917,1.98529,0.00046101,1,13,49,2,1,9.78364,140,1.33298,44,"same","same",NA,1,1,NA,NA,1,1,NA,1,NA,NA,18,15,17,15,1,"I just chose the words I most associated with",NA,50,16,16,15,15,16,3,3,3,5,4,5,2,3,4,4,50,17,30,2,2,1,2,1,2,2,2,2,2,2,2,1,6,6,7,7,7,2,6,5,1,26,"female",1,NA,1,NA,2,NA,0,0,1,0,0,5,2,2.6,"Same Mean",-1
"159",135,131,109,137,121,115,129,117,113,125,111,133,123,1.9852,0.00064148,1,13,50,4,1,9.9453,133,0.882623,21,"low","low",NA,1,1,NA,NA,1,1,NA,1,NA,NA,18,15,17,15,1,"I just chose the words I most associated with",NA,50,16,16,15,15,16,3,3,3,5,4,5,2,3,4,4,50,17,30,2,2,1,2,1,2,2,2,2,2,2,2,1,6,6,7,7,7,2,6,5,1,26,"female",1,NA,1,NA,2,NA,0,0,1,0,0,5,2,2.6,"Different Mean",1
"160",126,128,124,144,130,146,142,122,148,134,138,150,136,1.99106,0.000252601,1,13,2,2,1,9.9453,136,1.37701,9,"same","same",NA,1,1,NA,NA,1,1,NA,1,NA,NA,18,15,17,15,1,"I just chose the words I most associated with",NA,50,16,16,15,15,16,3,3,3,5,4,5,2,3,4,4,50,17,30,2,2,1,2,1,2,2,2,2,2,2,2,1,6,6,7,7,7,2,6,5,1,26,"female",1,NA,1,NA,2,NA,0,0,1,0,0,5,2,2.6,"Same Mean",-1
"161",141,121,145,125,137,123,149,129,147,127,143,133,135,1.99066,0.00050121,1,13,3,3,1,9.9453,135,1.4274,24,"same","same",NA,1,1,NA,NA,1,1,NA,1,NA,NA,18,15,17,15,1,"I just chose the words I most associated with",NA,50,16,16,15,15,16,3,3,3,5,4,5,2,3,4,4,50,17,30,2,2,1,2,1,2,2,2,2,2,2,2,1,6,6,7,7,7,2,6,5,1,26,"female",1,NA,1,NA,2,NA,0,0,1,0,0,5,2,2.6,"Same Mean",-1
"162",136,132,142,138,124,120,144,140,116,118,128,122,130,1.99729,0.000630646,0,13,4,1,1,9.9453,140,1.15405,10,"low","low",NA,1,1,NA,NA,1,1,NA,1,NA,NA,18,15,17,15,1,"I just chose the words I most associated with",NA,50,16,16,15,15,16,3,3,3,5,4,5,2,3,4,4,50,17,30,2,2,1,2,1,2,2,2,2,2,2,2,1,6,6,7,7,7,2,6,5,1,26,"female",1,NA,1,NA,2,NA,0,0,1,0,0,5,2,2.6,"Different Mean",1
"163",125,148,150,132,123,137,148,143,146,133,146,126,138.083,1.99484,0.000478687,1,13,5,3,1,9.98598,138,1.0732,41,"same","same",NA,1,1,NA,NA,1,1,NA,1,NA,NA,18,15,17,15,1,"I just chose the words I most associated with",NA,50,16,16,15,15,16,3,3,3,5,4,5,2,3,4,4,50,17,30,2,2,1,2,1,2,2,2,2,2,2,2,1,6,6,7,7,7,2,6,5,1,26,"female",1,NA,1,NA,2,NA,0,0,1,0,0,5,2,2.6,"Same Mean",-1
"164",120,130,116,136,114,108,110,134,112,124,128,132,122,1.98504,0.000199001,1,13,6,2,1,9.9453,132,1.11631,46,"low","low",NA,1,1,NA,NA,1,1,NA,1,NA,NA,18,15,17,15,1,"I just chose the words I most associated with",NA,50,16,16,15,15,16,3,3,3,5,4,5,2,3,4,4,50,17,30,2,2,1,2,1,2,2,2,2,2,2,2,1,6,6,7,7,7,2,6,5,1,26,"female",1,NA,1,NA,2,NA,0,0,1,0,0,5,2,2.6,"Different Mean",1
"165",140,120,136,142,124,116,144,118,138,128,132,122,130,1.99436,0.000189023,1,13,7,1,1,9.9453,140,1.32403,17,"low","low",NA,1,1,NA,NA,1,1,NA,1,NA,NA,18,15,17,15,1,"I just chose the words I most associated with",NA,50,16,16,15,15,16,3,3,3,5,4,5,2,3,4,4,50,17,30,2,2,1,2,1,2,2,2,2,2,2,2,1,6,6,7,7,7,2,6,5,1,26,"female",1,NA,1,NA,2,NA,0,0,1,0,0,5,2,2.6,"Different Mean",1
"166",144,150,133,149,126,147,149,127,134,138,147,124,139,1.99267,0.000560226,0,13,8,3,1,9.88111,129,0.974928,20,"high","high",NA,1,1,NA,NA,1,1,NA,1,NA,NA,18,15,17,15,1,"I just chose the words I most associated with",NA,50,16,16,15,15,16,3,3,3,5,4,5,2,3,4,4,50,17,30,2,2,1,2,1,2,2,2,2,2,2,2,1,6,6,7,7,7,2,6,5,1,26,"female",1,NA,1,NA,2,NA,0,0,1,0,0,5,2,2.6,"Different Mean",1
"167",142,140,138,136,128,144,120,116,122,118,132,124,130,1.99471,0.000314753,1,13,9,1,1,9.9453,140,1.08983,34,"low","low",NA,1,1,NA,NA,1,1,NA,1,NA,NA,18,15,17,15,1,"I just chose the words I most associated with",NA,50,16,16,15,15,16,3,3,3,5,4,5,2,3,4,4,50,17,30,2,2,1,2,1,2,2,2,2,2,2,2,1,6,6,7,7,7,2,6,5,1,26,"female",1,NA,1,NA,2,NA,0,0,1,0,0,5,2,2.6,"Different Mean",1
"168",129,131,117,125,135,137,115,113,121,111,133,109,123,1.99985,0.000523733,1,13,10,3,1,9.9453,123,0.834715,18,"same","same",NA,1,1,NA,NA,1,1,NA,1,NA,NA,18,15,17,15,1,"I just chose the words I most associated with",NA,50,16,16,15,15,16,3,3,3,5,4,5,2,3,4,4,50,17,30,2,2,1,2,1,2,2,2,2,2,2,2,1,6,6,7,7,7,2,6,5,1,26,"female",1,NA,1,NA,2,NA,0,0,1,0,0,5,2,2.6,"Same Mean",-1
"169",135,115,113,107,131,129,133,119,127,109,111,123,121,1.99521,0.000472414,1,13,11,4,1,9.9453,111,0.255537,47,"high","high",NA,1,1,NA,NA,1,1,NA,1,NA,NA,18,15,17,15,1,"I just chose the words I most associated with",NA,50,16,16,15,15,16,3,3,3,5,4,5,2,3,4,4,50,17,30,2,2,1,2,1,2,2,2,2,2,2,2,1,6,6,7,7,7,2,6,5,1,26,"female",1,NA,1,NA,2,NA,0,0,1,0,0,5,2,2.6,"Different Mean",1
"170",150,134,150,127,150,148,128,135,148,125,145,139,139.917,1.99529,0.000269137,0,13,13,2,1,9.78364,140,1.35599,40,"same","same",NA,1,1,NA,NA,1,1,NA,1,NA,NA,18,15,17,15,1,"I just chose the words I most associated with",NA,50,16,16,15,15,16,3,3,3,5,4,5,2,3,4,4,50,17,30,2,2,1,2,1,2,2,2,2,2,2,2,1,6,6,7,7,7,2,6,5,1,26,"female",1,NA,1,NA,2,NA,0,0,1,0,0,5,2,2.6,"Same Mean",-1
"171",128,138,120,116,144,132,140,142,136,124,122,118,130,1.99295,0.000564788,1,13,14,3,1,9.9453,140,1.2584,31,"low","low",NA,1,1,NA,NA,1,1,NA,1,NA,NA,18,15,17,15,1,"I just chose the words I most associated with",NA,50,16,16,15,15,16,3,3,3,5,4,5,2,3,4,4,50,17,30,2,2,1,2,1,2,2,2,2,2,2,2,1,6,6,7,7,7,2,6,5,1,26,"female",1,NA,1,NA,2,NA,0,0,1,0,0,5,2,2.6,"Different Mean",1
"172",120,128,136,122,148,144,126,146,132,140,124,142,134,1.98973,0.000338702,0,13,15,4,1,9.9453,134,1.09494,38,"same","same",NA,1,1,NA,NA,1,1,NA,1,NA,NA,18,15,17,15,1,"I just chose the words I most associated with",NA,50,16,16,15,15,16,3,3,3,5,4,5,2,3,4,4,50,17,30,2,2,1,2,1,2,2,2,2,2,2,2,1,6,6,7,7,7,2,6,5,1,26,"female",1,NA,1,NA,2,NA,0,0,1,0,0,5,2,2.6,"Same Mean",-1
"173",131,119,111,135,127,117,139,115,113,123,137,133,125,1.9842,0.000616106,0,13,16,2,1,9.9453,135,1.16706,42,"low","low",NA,1,1,NA,NA,1,1,NA,1,NA,NA,18,15,17,15,1,"I just chose the words I most associated with",NA,50,16,16,15,15,16,3,3,3,5,4,5,2,3,4,4,50,17,30,2,2,1,2,1,2,2,2,2,2,2,2,1,6,6,7,7,7,2,6,5,1,26,"female",1,NA,1,NA,2,NA,0,0,1,0,0,5,2,2.6,"Different Mean",1
"174",118,116,120,142,130,138,140,136,114,126,122,134,128,1.98816,0.000449606,1,13,17,1,1,9.9453,138,1.0797,22,"low","low",NA,1,1,NA,NA,1,1,NA,1,NA,NA,18,15,17,15,1,"I just chose the words I most associated with",NA,50,16,16,15,15,16,3,3,3,5,4,5,2,3,4,4,50,17,30,2,2,1,2,1,2,2,2,2,2,2,2,1,6,6,7,7,7,2,6,5,1,26,"female",1,NA,1,NA,2,NA,0,0,1,0,0,5,2,2.6,"Different Mean",1
"175",117,125,133,141,139,113,129,119,115,137,121,135,127,1.9981,0.000565073,0,13,18,1,1,9.9453,137,1.08655,11,"low","low",NA,1,1,NA,NA,1,1,NA,1,NA,NA,18,15,17,15,1,"I just chose the words I most associated with",NA,50,16,16,15,15,16,3,3,3,5,4,5,2,3,4,4,50,17,30,2,2,1,2,1,2,2,2,2,2,2,2,1,6,6,7,7,7,2,6,5,1,26,"female",1,NA,1,NA,2,NA,0,0,1,0,0,5,2,2.6,"Different Mean",1
"176",124,144,149,150,133,149,127,147,138,126,134,147,139,1.99357,0.00037662,1,13,19,4,1,9.88111,139,1.15772,13,"same","same",NA,1,1,NA,NA,1,1,NA,1,NA,NA,18,15,17,15,1,"I just chose the words I most associated with",NA,50,16,16,15,15,16,3,3,3,5,4,5,2,3,4,4,50,17,30,2,2,1,2,1,2,2,2,2,2,2,2,1,6,6,7,7,7,2,6,5,1,26,"female",1,NA,1,NA,2,NA,0,0,1,0,0,5,2,2.6,"Same Mean",-1
"177",147,129,125,123,145,141,121,133,143,137,127,149,135,1.99853,0.000693939,0,13,20,2,1,9.9453,135,1.00273,4,"same","same",NA,1,1,NA,NA,1,1,NA,1,NA,NA,18,15,17,15,1,"I just chose the words I most associated with",NA,50,16,16,15,15,16,3,3,3,5,4,5,2,3,4,4,50,17,30,2,2,1,2,1,2,2,2,2,2,2,2,1,6,6,7,7,7,2,6,5,1,26,"female",1,NA,1,NA,2,NA,0,0,1,0,0,5,2,2.6,"Same Mean",-1
"178",118,114,126,108,134,106,132,130,110,112,122,128,120,1.98452,0.000581609,1,13,21,1,1,9.9453,130,0.750317,49,"low","low",NA,1,1,NA,NA,1,1,NA,1,NA,NA,18,15,17,15,1,"I just chose the words I most associated with",NA,50,16,16,15,15,16,3,3,3,5,4,5,2,3,4,4,50,17,30,2,2,1,2,1,2,2,2,2,2,2,2,1,6,6,7,7,7,2,6,5,1,26,"female",1,NA,1,NA,2,NA,0,0,1,0,0,5,2,2.6,"Different Mean",1
"179",138,118,134,136,140,116,122,126,120,130,142,114,128,1.98736,0.000624374,1,13,22,2,1,9.9453,138,1.36399,14,"low","low",NA,1,1,NA,NA,1,1,NA,1,NA,NA,18,15,17,15,1,"I just chose the words I most associated with",NA,50,16,16,15,15,16,3,3,3,5,4,5,2,3,4,4,50,17,30,2,2,1,2,1,2,2,2,2,2,2,2,1,6,6,7,7,7,2,6,5,1,26,"female",1,NA,1,NA,2,NA,0,0,1,0,0,5,2,2.6,"Different Mean",1
"180",144,126,132,142,148,124,146,128,140,122,136,120,134,1.99225,0.000269992,0,13,24,1,1,9.9453,134,0.908996,36,"same","same",NA,1,1,NA,NA,1,1,NA,1,NA,NA,18,15,17,15,1,"I just chose the words I most associated with",NA,50,16,16,15,15,16,3,3,3,5,4,5,2,3,4,4,50,17,30,2,2,1,2,1,2,2,2,2,2,2,2,1,6,6,7,7,7,2,6,5,1,26,"female",1,NA,1,NA,2,NA,0,0,1,0,0,5,2,2.6,"Same Mean",-1
"181",136,116,120,128,130,132,124,108,112,110,114,134,122,1.99026,0.00044647,1,13,25,3,1,9.9453,132,0.944651,45,"low","low",NA,1,1,NA,NA,1,1,NA,1,NA,NA,18,15,17,15,1,"I just chose the words I most associated with",NA,50,16,16,15,15,16,3,3,3,5,4,5,2,3,4,4,50,17,30,2,2,1,2,1,2,2,2,2,2,2,2,1,6,6,7,7,7,2,6,5,1,26,"female",1,NA,1,NA,2,NA,0,0,1,0,0,5,2,2.6,"Different Mean",1
"182",133,126,146,132,143,148,148,123,150,125,137,146,138.083,1.98392,0.000314468,0,13,26,1,1,9.98598,128,0.833665,27,"high","high",NA,1,1,NA,NA,1,1,NA,1,NA,NA,18,15,17,15,1,"I just chose the words I most associated with",NA,50,16,16,15,15,16,3,3,3,5,4,5,2,3,4,4,50,17,30,2,2,1,2,1,2,2,2,2,2,2,2,1,6,6,7,7,7,2,6,5,1,26,"female",1,NA,1,NA,2,NA,0,0,1,0,0,5,2,2.6,"Different Mean",1
"183",126,123,137,148,150,125,133,146,146,143,148,132,138.083,1.98717,0.000188168,1,13,27,1,1,9.98598,128,4.51494,32,"high","high",NA,1,1,NA,NA,1,1,NA,1,NA,NA,18,15,17,15,1,"I just chose the words I most associated with",NA,50,16,16,15,15,16,3,3,3,5,4,5,2,3,4,4,50,17,30,2,2,1,2,1,2,2,2,2,2,2,2,1,6,6,7,7,7,2,6,5,1,26,"female",1,NA,1,NA,2,NA,0,0,1,0,0,5,2,2.6,"Different Mean",1
"184",137,133,126,123,132,146,125,146,148,150,143,148,138.083,1.99404,0.00034868,0,13,28,4,1,9.98598,128,0.890254,50,"high","high",NA,1,1,NA,NA,1,1,NA,1,NA,NA,18,15,17,15,1,"I just chose the words I most associated with",NA,50,16,16,15,15,16,3,3,3,5,4,5,2,3,4,4,50,17,30,2,2,1,2,1,2,2,2,2,2,2,2,1,6,6,7,7,7,2,6,5,1,26,"female",1,NA,1,NA,2,NA,0,0,1,0,0,5,2,2.6,"Different Mean",1
"185",137,129,113,111,131,133,115,109,117,121,125,135,123,1.99169,0.000399143,1,13,29,1,1,9.9453,133,1.04284,26,"low","low",NA,1,1,NA,NA,1,1,NA,1,NA,NA,18,15,17,15,1,"I just chose the words I most associated with",NA,50,16,16,15,15,16,3,3,3,5,4,5,2,3,4,4,50,17,30,2,2,1,2,1,2,2,2,2,2,2,2,1,6,6,7,7,7,2,6,5,1,26,"female",1,NA,1,NA,2,NA,0,0,1,0,0,5,2,2.6,"Different Mean",1
"186",137,135,111,113,133,119,127,117,131,123,115,139,125,1.98619,0.000441909,1,13,30,3,1,9.9453,125,0.764923,6,"same","same",NA,1,1,NA,NA,1,1,NA,1,NA,NA,18,15,17,15,1,"I just chose the words I most associated with",NA,50,16,16,15,15,16,3,3,3,5,4,5,2,3,4,4,50,17,30,2,2,1,2,1,2,2,2,2,2,2,2,1,6,6,7,7,7,2,6,5,1,26,"female",1,NA,1,NA,2,NA,0,0,1,0,0,5,2,2.6,"Same Mean",-1
"187",139,127,135,123,131,143,141,147,121,119,125,145,133,1.99364,0.00019501,0,13,31,2,1,9.9453,133,1.07408,37,"same","same",NA,1,1,NA,NA,1,1,NA,1,NA,NA,18,15,17,15,1,"I just chose the words I most associated with",NA,50,16,16,15,15,16,3,3,3,5,4,5,2,3,4,4,50,17,30,2,2,1,2,1,2,2,2,2,2,2,2,1,6,6,7,7,7,2,6,5,1,26,"female",1,NA,1,NA,2,NA,0,0,1,0,0,5,2,2.6,"Same Mean",-1
"188",141,127,143,133,121,123,137,129,149,147,145,125,135,1.98887,0.000207554,1,13,32,2,1,9.9453,135,1.22907,7,"same","same",NA,1,1,NA,NA,1,1,NA,1,NA,NA,18,15,17,15,1,"I just chose the words I most associated with",NA,50,16,16,15,15,16,3,3,3,5,4,5,2,3,4,4,50,17,30,2,2,1,2,1,2,2,2,2,2,2,2,1,6,6,7,7,7,2,6,5,1,26,"female",1,NA,1,NA,2,NA,0,0,1,0,0,5,2,2.6,"Same Mean",-1
"189",138,134,130,118,142,116,114,126,140,122,136,120,128,1.98688,0.000231788,1,13,33,2,1,9.9453,138,0.930783,16,"low","low",NA,1,1,NA,NA,1,1,NA,1,NA,NA,18,15,17,15,1,"I just chose the words I most associated with",NA,50,16,16,15,15,16,3,3,3,5,4,5,2,3,4,4,50,17,30,2,2,1,2,1,2,2,2,2,2,2,2,1,6,6,7,7,7,2,6,5,1,26,"female",1,NA,1,NA,2,NA,0,0,1,0,0,5,2,2.6,"Different Mean",1
"190",122,132,136,140,124,116,128,118,138,144,142,120,130,1.99637,0.000210691,1,13,35,1,1,9.9453,140,1.2716,12,"low","low",NA,1,1,NA,NA,1,1,NA,1,NA,NA,18,15,17,15,1,"I just chose the words I most associated with",NA,50,16,16,15,15,16,3,3,3,5,4,5,2,3,4,4,50,17,30,2,2,1,2,1,2,2,2,2,2,2,2,1,6,6,7,7,7,2,6,5,1,26,"female",1,NA,1,NA,2,NA,0,0,1,0,0,5,2,2.6,"Different Mean",1
"191",118,110,130,106,126,122,114,108,124,128,104,102,116,1.99669,0.00036322,0,13,36,1,1,9.9453,126,1.08793,23,"low","low",NA,1,1,NA,NA,1,1,NA,1,NA,NA,18,15,17,15,1,"I just chose the words I most associated with",NA,50,16,16,15,15,16,3,3,3,5,4,5,2,3,4,4,50,17,30,2,2,1,2,1,2,2,2,2,2,2,2,1,6,6,7,7,7,2,6,5,1,26,"female",1,NA,1,NA,2,NA,0,0,1,0,0,5,2,2.6,"Different Mean",1
"192",132,124,138,140,144,122,142,118,128,136,120,116,130,1.99997,0.000445615,1,13,37,3,1,9.9453,130,0.917745,29,"same","same",NA,1,1,NA,NA,1,1,NA,1,NA,NA,18,15,17,15,1,"I just chose the words I most associated with",NA,50,16,16,15,15,16,3,3,3,5,4,5,2,3,4,4,50,17,30,2,2,1,2,1,2,2,2,2,2,2,2,1,6,6,7,7,7,2,6,5,1,26,"female",1,NA,1,NA,2,NA,0,0,1,0,0,5,2,2.6,"Same Mean",-1
"193",112,132,126,120,124,128,108,106,110,130,116,104,118,1.99355,0.000369207,0,13,38,1,1,9.9453,128,1.44113,25,"low","low",NA,1,1,NA,NA,1,1,NA,1,NA,NA,18,15,17,15,1,"I just chose the words I most associated with",NA,50,16,16,15,15,16,3,3,3,5,4,5,2,3,4,4,50,17,30,2,2,1,2,1,2,2,2,2,2,2,2,1,6,6,7,7,7,2,6,5,1,26,"female",1,NA,1,NA,2,NA,0,0,1,0,0,5,2,2.6,"Different Mean",1
"194",145,147,142,122,136,132,131,125,149,145,124,147,137.083,1.99308,0.000399999,1,13,39,2,1,9.98598,127,0.824741,39,"high","high",NA,1,1,NA,NA,1,1,NA,1,NA,NA,18,15,17,15,1,"I just chose the words I most associated with",NA,50,16,16,15,15,16,3,3,3,5,4,5,2,3,4,4,50,17,30,2,2,1,2,1,2,2,2,2,2,2,2,1,6,6,7,7,7,2,6,5,1,26,"female",1,NA,1,NA,2,NA,0,0,1,0,0,5,2,2.6,"Different Mean",1
"195",126,122,116,114,134,112,118,138,110,130,136,132,124,1.99862,0.000202708,1,13,40,1,1,9.9453,134,1.10259,48,"low","low",NA,1,1,NA,NA,1,1,NA,1,NA,NA,18,15,17,15,1,"I just chose the words I most associated with",NA,50,16,16,15,15,16,3,3,3,5,4,5,2,3,4,4,50,17,30,2,2,1,2,1,2,2,2,2,2,2,2,1,6,6,7,7,7,2,6,5,1,26,"female",1,NA,1,NA,2,NA,0,0,1,0,0,5,2,2.6,"Different Mean",1
"196",144,142,140,132,122,128,124,138,120,118,136,116,130,1.99286,0.000265715,0,13,41,2,1,9.9453,140,0.874991,1,"low","low",NA,1,1,NA,NA,1,1,NA,1,NA,NA,18,15,17,15,1,"I just chose the words I most associated with",NA,50,16,16,15,15,16,3,3,3,5,4,5,2,3,4,4,50,17,30,2,2,1,2,1,2,2,2,2,2,2,2,1,6,6,7,7,7,2,6,5,1,26,"female",1,NA,1,NA,2,NA,0,0,1,0,0,5,2,2.6,"Different Mean",1
"197",126,146,137,143,146,150,148,132,133,123,125,148,138.083,1.99712,0.000327297,1,13,42,3,1,9.98598,138,1.55471,2,"same","same",NA,1,1,NA,NA,1,1,NA,1,NA,NA,18,15,17,15,1,"I just chose the words I most associated with",NA,50,16,16,15,15,16,3,3,3,5,4,5,2,3,4,4,50,17,30,2,2,1,2,1,2,2,2,2,2,2,2,1,6,6,7,7,7,2,6,5,1,26,"female",1,NA,1,NA,2,NA,0,0,1,0,0,5,2,2.6,"Same Mean",-1
"198",112,120,124,116,108,126,130,128,110,104,132,106,118,1.98413,0.000398858,1,13,43,3,1,9.9453,128,1.11712,19,"low","low",NA,1,1,NA,NA,1,1,NA,1,NA,NA,18,15,17,15,1,"I just chose the words I most associated with",NA,50,16,16,15,15,16,3,3,3,5,4,5,2,3,4,4,50,17,30,2,2,1,2,1,2,2,2,2,2,2,2,1,6,6,7,7,7,2,6,5,1,26,"female",1,NA,1,NA,2,NA,0,0,1,0,0,5,2,2.6,"Different Mean",1
"199",132,147,122,145,136,125,145,149,147,124,131,142,137.083,1.98839,0.000238346,1,13,44,2,1,9.98598,137,0.895929,43,"same","same",NA,1,1,NA,NA,1,1,NA,1,NA,NA,18,15,17,15,1,"I just chose the words I most associated with",NA,50,16,16,15,15,16,3,3,3,5,4,5,2,3,4,4,50,17,30,2,2,1,2,1,2,2,2,2,2,2,2,1,6,6,7,7,7,2,6,5,1,26,"female",1,NA,1,NA,2,NA,0,0,1,0,0,5,2,2.6,"Same Mean",-1
"200",150,128,148,125,135,150,127,139,150,134,145,148,139.917,1.98667,0.000297077,1,13,46,3,1,9.78364,140,1.59794,35,"same","same",NA,1,1,NA,NA,1,1,NA,1,NA,NA,18,15,17,15,1,"I just chose the words I most associated with",NA,50,16,16,15,15,16,3,3,3,5,4,5,2,3,4,4,50,17,30,2,2,1,2,1,2,2,2,2,2,2,2,1,6,6,7,7,7,2,6,5,1,26,"female",1,NA,1,NA,2,NA,0,0,1,0,0,5,2,2.6,"Same Mean",-1
"201",146,148,137,132,148,126,150,146,143,133,123,125,138.083,1.98411,0.00217733,1,14,1,3,1,9.98598,138,3.13606,5,"same","same",NA,1,1,NA,NA,1,1,NA,NA,1,NA,14,17,16,16,2,NA,"remove responses with higher scores",50,13,14,14,13,14,5,3,3,3,3,2,4,1,3,3,90,85,1,1,1,2,1,2,1,2,2,1,2,2,2,5,3,2,4,7,1,2,4,4,2,23,"male",2,"China",2,"9",2,NA,0,0,0,1,0,5,1,0.6,"Same Mean",-1
"202",128,132,122,120,136,124,144,140,142,116,138,118,130,1.99668,0.00117833,0,14,12,4,1,9.9453,140,1.95301,33,"low","low",NA,1,1,NA,NA,1,1,NA,NA,1,NA,14,17,16,16,2,NA,"remove responses with higher scores",50,13,14,14,13,14,5,3,3,3,3,2,4,1,3,3,90,85,1,1,1,2,1,2,1,2,2,1,2,2,2,5,3,2,4,7,1,2,4,4,2,23,"male",2,"China",2,"9",2,NA,0,0,0,1,0,5,1,0.6,"Different Mean",1
"203",144,122,124,136,118,138,142,116,132,120,128,140,130,1.98607,0.000598145,1,14,23,2,1,9.9453,140,3.49895,3,"low","low",NA,1,1,NA,NA,1,1,NA,NA,1,NA,14,17,16,16,2,NA,"remove responses with higher scores",50,13,14,14,13,14,5,3,3,3,3,2,4,1,3,3,90,85,1,1,1,2,1,2,1,2,2,1,2,2,2,5,3,2,4,7,1,2,4,4,2,23,"male",2,"China",2,"9",2,NA,0,0,0,1,0,5,1,0.6,"Different Mean",1
"204",139,148,148,145,150,135,125,128,150,134,127,150,139.917,1.99528,0.000657161,0,14,34,4,1,9.78364,140,4.05661,30,"same","same",NA,1,1,NA,NA,1,1,NA,NA,1,NA,14,17,16,16,2,NA,"remove responses with higher scores",50,13,14,14,13,14,5,3,3,3,3,2,4,1,3,3,90,85,1,1,1,2,1,2,1,2,2,1,2,2,2,5,3,2,4,7,1,2,4,4,2,23,"male",2,"China",2,"9",2,NA,0,0,0,1,0,5,1,0.6,"Same Mean",-1
"205",135,148,127,139,150,148,125,128,150,150,134,145,139.917,1.99326,0.000455308,0,14,45,1,1,9.78364,140,3.19206,15,"same","same",NA,1,1,NA,NA,1,1,NA,NA,1,NA,14,17,16,16,2,NA,"remove responses with higher scores",50,13,14,14,13,14,5,3,3,3,3,2,4,1,3,3,90,85,1,1,1,2,1,2,1,2,2,1,2,2,2,5,3,2,4,7,1,2,4,4,2,23,"male",2,"China",2,"9",2,NA,0,0,0,1,0,5,1,0.6,"Same Mean",-1
"206",118,136,122,128,124,142,144,140,116,138,120,132,130,1.98788,0.00019558,0,14,47,2,1,9.9453,140,2.18035,8,"low","low",NA,1,1,NA,NA,1,1,NA,NA,1,NA,14,17,16,16,2,NA,"remove responses with higher scores",50,13,14,14,13,14,5,3,3,3,3,2,4,1,3,3,90,85,1,1,1,2,1,2,1,2,2,1,2,2,2,5,3,2,4,7,1,2,4,4,2,23,"male",2,"China",2,"9",2,NA,0,0,0,1,0,5,1,0.6,"Different Mean",1
"207",122,118,128,106,108,126,112,114,130,110,132,134,120,1.99893,0.000417675,1,14,48,2,1,9.9453,110,3.40183,28,"high","high",NA,1,1,NA,NA,1,1,NA,NA,1,NA,14,17,16,16,2,NA,"remove responses with higher scores",50,13,14,14,13,14,5,3,3,3,3,2,4,1,3,3,90,85,1,1,1,2,1,2,1,2,2,1,2,2,2,5,3,2,4,7,1,2,4,4,2,23,"male",2,"China",2,"9",2,NA,0,0,0,1,0,5,1,0.6,"Different Mean",1
"208",134,116,118,114,126,122,120,136,138,142,130,140,128,1.98424,0.000198716,1,14,49,2,1,9.9453,118,6.4687,44,"high","high",NA,1,1,NA,NA,1,1,NA,NA,1,NA,14,17,16,16,2,NA,"remove responses with higher scores",50,13,14,14,13,14,5,3,3,3,3,2,4,1,3,3,90,85,1,1,1,2,1,2,1,2,2,1,2,2,2,5,3,2,4,7,1,2,4,4,2,23,"male",2,"China",2,"9",2,NA,0,0,0,1,0,5,1,0.6,"Different Mean",1
"209",142,138,116,144,128,122,136,124,120,132,118,140,130,1.98758,0.000267141,1,14,50,4,1,9.9453,140,2.26388,21,"low","low",NA,1,1,NA,NA,1,1,NA,NA,1,NA,14,17,16,16,2,NA,"remove responses with higher scores",50,13,14,14,13,14,5,3,3,3,3,2,4,1,3,3,90,85,1,1,1,2,1,2,1,2,2,1,2,2,2,5,3,2,4,7,1,2,4,4,2,23,"male",2,"China",2,"9",2,NA,0,0,0,1,0,5,1,0.6,"Different Mean",1
"210",128,134,127,148,135,150,148,125,150,139,145,150,139.917,1.99067,0.000615536,0,14,2,2,1,9.78364,140,2.52788,9,"same","same",NA,1,1,NA,NA,1,1,NA,NA,1,NA,14,17,16,16,2,NA,"remove responses with higher scores",50,13,14,14,13,14,5,3,3,3,3,2,4,1,3,3,90,85,1,1,1,2,1,2,1,2,2,1,2,2,2,5,3,2,4,7,1,2,4,4,2,23,"male",2,"China",2,"9",2,NA,0,0,0,1,0,5,1,0.6,"Same Mean",-1
"211",148,125,150,128,145,127,150,135,150,134,148,139,139.917,1.98532,0.00055709,0,14,3,3,1,9.78364,140,3.33335,24,"same","same",NA,1,1,NA,NA,1,1,NA,NA,1,NA,14,17,16,16,2,NA,"remove responses with higher scores",50,13,14,14,13,14,5,3,3,3,3,2,4,1,3,3,90,85,1,1,1,2,1,2,1,2,2,1,2,2,2,5,3,2,4,7,1,2,4,4,2,23,"male",2,"China",2,"9",2,NA,0,0,0,1,0,5,1,0.6,"Same Mean",-1
"212",136,132,142,138,124,120,144,140,116,118,128,122,130,1.99544,0.000862434,0,14,4,1,1,9.9453,140,3.77333,10,"low","low",NA,1,1,NA,NA,1,1,NA,NA,1,NA,14,17,16,16,2,NA,"remove responses with higher scores",50,13,14,14,13,14,5,3,3,3,3,2,4,1,3,3,90,85,1,1,1,2,1,2,1,2,2,1,2,2,2,5,3,2,4,7,1,2,4,4,2,23,"male",2,"China",2,"9",2,NA,0,0,0,1,0,5,1,0.6,"Different Mean",1
"213",127,150,150,134,125,139,150,145,148,135,148,128,139.917,1.99973,0.00021012,1,14,5,3,1,9.78364,140,2.56871,41,"same","same",NA,1,1,NA,NA,1,1,NA,NA,1,NA,14,17,16,16,2,NA,"remove responses with higher scores",50,13,14,14,13,14,5,3,3,3,3,2,4,1,3,3,90,85,1,1,1,2,1,2,1,2,2,1,2,2,2,5,3,2,4,7,1,2,4,4,2,23,"male",2,"China",2,"9",2,NA,0,0,0,1,0,5,1,0.6,"Same Mean",-1
"214",128,138,124,144,122,116,118,142,120,132,136,140,130,1.99428,0.000214112,0,14,6,2,1,9.9453,140,3.80797,46,"low","low",NA,1,1,NA,NA,1,1,NA,NA,1,NA,14,17,16,16,2,NA,"remove responses with higher scores",50,13,14,14,13,14,5,3,3,3,3,2,4,1,3,3,90,85,1,1,1,2,1,2,1,2,2,1,2,2,2,5,3,2,4,7,1,2,4,4,2,23,"male",2,"China",2,"9",2,NA,0,0,0,1,0,5,1,0.6,"Different Mean",1
"215",140,120,136,142,124,116,144,118,138,128,132,122,130,1.99425,0.00019615,1,14,7,1,1,9.9453,140,3.80785,17,"low","low",NA,1,1,NA,NA,1,1,NA,NA,1,NA,14,17,16,16,2,NA,"remove responses with higher scores",50,13,14,14,13,14,5,3,3,3,3,2,4,1,3,3,90,85,1,1,1,2,1,2,1,2,2,1,2,2,2,5,3,2,4,7,1,2,4,4,2,23,"male",2,"China",2,"9",2,NA,0,0,0,1,0,5,1,0.6,"Different Mean",1
"216",145,150,134,150,127,148,150,128,135,139,148,125,139.917,1.99013,0.000195295,1,14,8,3,1,9.78364,140,2.8116,20,"same","same",NA,1,1,NA,NA,1,1,NA,NA,1,NA,14,17,16,16,2,NA,"remove responses with higher scores",50,13,14,14,13,14,5,3,3,3,3,2,4,1,3,3,90,85,1,1,1,2,1,2,1,2,2,1,2,2,2,5,3,2,4,7,1,2,4,4,2,23,"male",2,"China",2,"9",2,NA,0,0,0,1,0,5,1,0.6,"Same Mean",-1
"217",142,140,138,136,128,144,120,116,122,118,132,124,130,1.99646,0.00020841,0,14,9,1,1,9.9453,140,2.92199,34,"low","low",NA,1,1,NA,NA,1,1,NA,NA,1,NA,14,17,16,16,2,NA,"remove responses with higher scores",50,13,14,14,13,14,5,3,3,3,3,2,4,1,3,3,90,85,1,1,1,2,1,2,1,2,2,1,2,2,2,5,3,2,4,7,1,2,4,4,2,23,"male",2,"China",2,"9",2,NA,0,0,0,1,0,5,1,0.6,"Different Mean",1
"218",136,138,124,132,142,144,122,120,128,118,140,116,130,1.99505,0.000624089,1,14,10,3,1,9.9453,140,1.90651,18,"low","low",NA,1,1,NA,NA,1,1,NA,NA,1,NA,14,17,16,16,2,NA,"remove responses with higher scores",50,13,14,14,13,14,5,3,3,3,3,2,4,1,3,3,90,85,1,1,1,2,1,2,1,2,2,1,2,2,2,5,3,2,4,7,1,2,4,4,2,23,"male",2,"China",2,"9",2,NA,0,0,0,1,0,5,1,0.6,"Different Mean",1
"219",150,135,134,125,150,148,150,139,148,127,128,145,139.917,1.99753,0.000362365,0,14,11,4,1,9.78364,140,2.18739,47,"same","same",NA,1,1,NA,NA,1,1,NA,NA,1,NA,14,17,16,16,2,NA,"remove responses with higher scores",50,13,14,14,13,14,5,3,3,3,3,2,4,1,3,3,90,85,1,1,1,2,1,2,1,2,2,1,2,2,2,5,3,2,4,7,1,2,4,4,2,23,"male",2,"China",2,"9",2,NA,0,0,0,1,0,5,1,0.6,"Same Mean",-1
"220",150,134,150,127,150,148,128,135,148,125,145,139,139.917,1.98523,0.000366642,1,14,13,2,1,9.78364,140,2.31637,40,"same","same",NA,1,1,NA,NA,1,1,NA,NA,1,NA,14,17,16,16,2,NA,"remove responses with higher scores",50,13,14,14,13,14,5,3,3,3,3,2,4,1,3,3,90,85,1,1,1,2,1,2,1,2,2,1,2,2,2,5,3,2,4,7,1,2,4,4,2,23,"male",2,"China",2,"9",2,NA,0,0,0,1,0,5,1,0.6,"Same Mean",-1
"221",128,138,120,116,144,132,140,142,136,124,122,118,130,1.99289,0.000260298,0,14,14,3,1,9.9453,140,1.82518,31,"low","low",NA,1,1,NA,NA,1,1,NA,NA,1,NA,14,17,16,16,2,NA,"remove responses with higher scores",50,13,14,14,13,14,5,3,3,3,3,2,4,1,3,3,90,85,1,1,1,2,1,2,1,2,2,1,2,2,2,5,3,2,4,7,1,2,4,4,2,23,"male",2,"China",2,"9",2,NA,0,0,0,1,0,5,1,0.6,"Different Mean",1
"222",106,114,122,108,134,130,112,132,118,126,110,128,120,1.99726,0.000578473,0,14,15,4,1,9.9453,120,1.30351,38,"same","same",NA,1,1,NA,NA,1,1,NA,NA,1,NA,14,17,16,16,2,NA,"remove responses with higher scores",50,13,14,14,13,14,5,3,3,3,3,2,4,1,3,3,90,85,1,1,1,2,1,2,1,2,2,1,2,2,2,5,3,2,4,7,1,2,4,4,2,23,"male",2,"China",2,"9",2,NA,0,0,0,1,0,5,1,0.6,"Same Mean",-1
"223",136,124,116,140,132,122,144,120,118,128,142,138,130,1.9918,0.000224376,1,14,16,2,1,9.9453,140,4.17711,42,"low","low",NA,1,1,NA,NA,1,1,NA,NA,1,NA,14,17,16,16,2,NA,"remove responses with higher scores",50,13,14,14,13,14,5,3,3,3,3,2,4,1,3,3,90,85,1,1,1,2,1,2,1,2,2,1,2,2,2,5,3,2,4,7,1,2,4,4,2,23,"male",2,"China",2,"9",2,NA,0,0,0,1,0,5,1,0.6,"Different Mean",1
"224",101,101,102,125,106,121,126,118,101,104,103,112,110,1.99372,0.000425088,0,14,17,1,1,9.89949,110,2.20777,22,"same","same",NA,1,1,NA,NA,1,1,NA,NA,1,NA,14,17,16,16,2,NA,"remove responses with higher scores",50,13,14,14,13,14,5,3,3,3,3,2,4,1,3,3,90,85,1,1,1,2,1,2,1,2,2,1,2,2,2,5,3,2,4,7,1,2,4,4,2,23,"male",2,"China",2,"9",2,NA,0,0,0,1,0,5,1,0.6,"Same Mean",-1
"225",120,128,136,144,142,116,132,122,118,140,124,138,130,1.99376,0.000309906,0,14,18,1,1,9.9453,140,2.02451,11,"low","low",NA,1,1,NA,NA,1,1,NA,NA,1,NA,14,17,16,16,2,NA,"remove responses with higher scores",50,13,14,14,13,14,5,3,3,3,3,2,4,1,3,3,90,85,1,1,1,2,1,2,1,2,2,1,2,2,2,5,3,2,4,7,1,2,4,4,2,23,"male",2,"China",2,"9",2,NA,0,0,0,1,0,5,1,0.6,"Different Mean",1
"226",114,130,140,142,120,138,118,134,126,116,122,136,128,1.99629,0.000311902,1,14,19,4,1,9.9453,118,3.75578,13,"high","high",NA,1,1,NA,NA,1,1,NA,NA,1,NA,14,17,16,16,2,NA,"remove responses with higher scores",50,13,14,14,13,14,5,3,3,3,3,2,4,1,3,3,90,85,1,1,1,2,1,2,1,2,2,1,2,2,2,5,3,2,4,7,1,2,4,4,2,23,"male",2,"China",2,"9",2,NA,0,0,0,1,0,5,1,0.6,"Different Mean",1
"227",140,122,118,116,138,134,114,126,136,130,120,142,128,1.99915,0.000302208,1,14,20,2,1,9.9453,118,1.13538,4,"high","high",NA,1,1,NA,NA,1,1,NA,NA,1,NA,14,17,16,16,2,NA,"remove responses with higher scores",50,13,14,14,13,14,5,3,3,3,3,2,4,1,3,3,90,85,1,1,1,2,1,2,1,2,2,1,2,2,2,5,3,2,4,7,1,2,4,4,2,23,"male",2,"China",2,"9",2,NA,0,0,0,1,0,5,1,0.6,"Different Mean",1
"228",128,124,136,118,144,116,142,140,120,122,132,138,130,1.99965,0.000224661,0,14,21,1,1,9.9453,140,3.11882,49,"low","low",NA,1,1,NA,NA,1,1,NA,NA,1,NA,14,17,16,16,2,NA,"remove responses with higher scores",50,13,14,14,13,14,5,3,3,3,3,2,4,1,3,3,90,85,1,1,1,2,1,2,1,2,2,1,2,2,2,5,3,2,4,7,1,2,4,4,2,23,"male",2,"China",2,"9",2,NA,0,0,0,1,0,5,1,0.6,"Different Mean",1
"229",126,106,122,124,128,104,110,114,108,118,130,102,116,1.99589,0.000434781,0,14,22,2,1,9.9453,126,3.2226,14,"low","low",NA,1,1,NA,NA,1,1,NA,NA,1,NA,14,17,16,16,2,NA,"remove responses with higher scores",50,13,14,14,13,14,5,3,3,3,3,2,4,1,3,3,90,85,1,1,1,2,1,2,1,2,2,1,2,2,2,5,3,2,4,7,1,2,4,4,2,23,"male",2,"China",2,"9",2,NA,0,0,0,1,0,5,1,0.6,"Different Mean",1
"230",143,125,131,141,147,123,145,127,139,121,135,119,133,1.99286,0.000458444,1,14,24,1,1,9.9453,123,2.80889,36,"high","high",NA,1,1,NA,NA,1,1,NA,NA,1,NA,14,17,16,16,2,NA,"remove responses with higher scores",50,13,14,14,13,14,5,3,3,3,3,2,4,1,3,3,90,85,1,1,1,2,1,2,1,2,2,1,2,2,2,5,3,2,4,7,1,2,4,4,2,23,"male",2,"China",2,"9",2,NA,0,0,0,1,0,5,1,0.6,"Different Mean",1
"231",129,109,113,121,123,125,117,101,105,103,107,127,115,1.99394,0.000563932,1,14,25,3,1,9.9453,125,1.64073,45,"low","low",NA,1,1,NA,NA,1,1,NA,NA,1,NA,14,17,16,16,2,NA,"remove responses with higher scores",50,13,14,14,13,14,5,3,3,3,3,2,4,1,3,3,90,85,1,1,1,2,1,2,1,2,2,1,2,2,2,5,3,2,4,7,1,2,4,4,2,23,"male",2,"China",2,"9",2,NA,0,0,0,1,0,5,1,0.6,"Different Mean",1
"232",135,128,148,134,145,150,150,125,150,127,139,148,139.917,1.99048,0.000204989,1,14,26,1,1,9.78364,140,2.12768,27,"same","same",NA,1,1,NA,NA,1,1,NA,NA,1,NA,14,17,16,16,2,NA,"remove responses with higher scores",50,13,14,14,13,14,5,3,3,3,3,2,4,1,3,3,90,85,1,1,1,2,1,2,1,2,2,1,2,2,2,5,3,2,4,7,1,2,4,4,2,23,"male",2,"China",2,"9",2,NA,0,0,0,1,0,5,1,0.6,"Same Mean",-1
"233",128,125,139,150,150,127,135,148,148,145,150,134,139.917,1.9993,0.000167355,0,14,27,1,1,9.78364,130,1.56863,32,"high","high",NA,1,1,NA,NA,1,1,NA,NA,1,NA,14,17,16,16,2,NA,"remove responses with higher scores",50,13,14,14,13,14,5,3,3,3,3,2,4,1,3,3,90,85,1,1,1,2,1,2,1,2,2,1,2,2,2,5,3,2,4,7,1,2,4,4,2,23,"male",2,"China",2,"9",2,NA,0,0,0,1,0,5,1,0.6,"Different Mean",1
"234",129,125,121,117,123,137,119,139,143,145,133,141,131,1.99579,0.000579898,0,14,28,4,1,9.9453,121,2.17225,50,"high","high",NA,1,1,NA,NA,1,1,NA,NA,1,NA,14,17,16,16,2,NA,"remove responses with higher scores",50,13,14,14,13,14,5,3,3,3,3,2,4,1,3,3,90,85,1,1,1,2,1,2,1,2,2,1,2,2,2,5,3,2,4,7,1,2,4,4,2,23,"male",2,"China",2,"9",2,NA,0,0,0,1,0,5,1,0.6,"Different Mean",1
"235",137,129,113,111,131,133,115,109,117,121,125,135,123,1.99005,0.000535707,0,14,29,1,1,9.9453,123,0.977779,26,"same","same",NA,1,1,NA,NA,1,1,NA,NA,1,NA,14,17,16,16,2,NA,"remove responses with higher scores",50,13,14,14,13,14,5,3,3,3,3,2,4,1,3,3,90,85,1,1,1,2,1,2,1,2,2,1,2,2,2,5,3,2,4,7,1,2,4,4,2,23,"male",2,"China",2,"9",2,NA,0,0,0,1,0,5,1,0.6,"Same Mean",-1
"236",150,150,125,127,148,135,145,134,148,139,128,150,139.917,2.00059,0.000330434,1,14,30,3,1,9.78364,140,1.55061,6,"same","same",NA,1,1,NA,NA,1,1,NA,NA,1,NA,14,17,16,16,2,NA,"remove responses with higher scores",50,13,14,14,13,14,5,3,3,3,3,2,4,1,3,3,90,85,1,1,1,2,1,2,1,2,2,1,2,2,2,5,3,2,4,7,1,2,4,4,2,23,"male",2,"China",2,"9",2,NA,0,0,0,1,0,5,1,0.6,"Same Mean",-1
"237",148,135,145,128,139,150,148,150,127,125,134,150,139.917,2.00021,0.000254311,1,14,31,2,1,9.78364,140,1.78433,37,"same","same",NA,1,1,NA,NA,1,1,NA,NA,1,NA,14,17,16,16,2,NA,"remove responses with higher scores",50,13,14,14,13,14,5,3,3,3,3,2,4,1,3,3,90,85,1,1,1,2,1,2,1,2,2,1,2,2,2,5,3,2,4,7,1,2,4,4,2,23,"male",2,"China",2,"9",2,NA,0,0,0,1,0,5,1,0.6,"Same Mean",-1
"238",141,127,143,133,121,123,137,129,149,147,145,125,135,1.99572,0.000518031,1,14,32,2,1,9.9453,135,1.38878,7,"same","same",NA,1,1,NA,NA,1,1,NA,NA,1,NA,14,17,16,16,2,NA,"remove responses with higher scores",50,13,14,14,13,14,5,3,3,3,3,2,4,1,3,3,90,85,1,1,1,2,1,2,1,2,2,1,2,2,2,5,3,2,4,7,1,2,4,4,2,23,"male",2,"China",2,"9",2,NA,0,0,0,1,0,5,1,0.6,"Same Mean",-1
"239",140,136,132,120,144,118,116,128,142,124,138,122,130,1.98526,0.000254881,1,14,33,2,1,9.9453,140,1.86621,16,"low","low",NA,1,1,NA,NA,1,1,NA,NA,1,NA,14,17,16,16,2,NA,"remove responses with higher scores",50,13,14,14,13,14,5,3,3,3,3,2,4,1,3,3,90,85,1,1,1,2,1,2,1,2,2,1,2,2,2,5,3,2,4,7,1,2,4,4,2,23,"male",2,"China",2,"9",2,NA,0,0,0,1,0,5,1,0.6,"Different Mean",1
"240",122,132,136,140,124,116,128,118,138,144,142,120,130,1.99163,0.000205274,1,14,35,1,1,9.9453,140,1.57644,12,"low","low",NA,1,1,NA,NA,1,1,NA,NA,1,NA,14,17,16,16,2,NA,"remove responses with higher scores",50,13,14,14,13,14,5,3,3,3,3,2,4,1,3,3,90,85,1,1,1,2,1,2,1,2,2,1,2,2,2,5,3,2,4,7,1,2,4,4,2,23,"male",2,"China",2,"9",2,NA,0,0,0,1,0,5,1,0.6,"Different Mean",1
"241",128,120,140,116,136,132,124,118,134,138,114,112,126,1.99133,0.000350106,0,14,36,1,1,9.9453,136,3.11048,23,"low","low",NA,1,1,NA,NA,1,1,NA,NA,1,NA,14,17,16,16,2,NA,"remove responses with higher scores",50,13,14,14,13,14,5,3,3,3,3,2,4,1,3,3,90,85,1,1,1,2,1,2,1,2,2,1,2,2,2,5,3,2,4,7,1,2,4,4,2,23,"male",2,"China",2,"9",2,NA,0,0,0,1,0,5,1,0.6,"Different Mean",1
"242",129,121,135,137,141,119,139,115,125,133,117,113,127,1.98853,0.000468138,1,14,37,3,1,9.9453,117,2.36301,29,"high","high",NA,1,1,NA,NA,1,1,NA,NA,1,NA,14,17,16,16,2,NA,"remove responses with higher scores",50,13,14,14,13,14,5,3,3,3,3,2,4,1,3,3,90,85,1,1,1,2,1,2,1,2,2,1,2,2,2,5,3,2,4,7,1,2,4,4,2,23,"male",2,"China",2,"9",2,NA,0,0,0,1,0,5,1,0.6,"Different Mean",1
"243",103,125,118,106,112,121,101,101,102,126,104,101,110,1.99011,0.000403705,0,14,38,1,1,9.89949,120,1.86135,25,"low","low",NA,1,1,NA,NA,1,1,NA,NA,1,NA,14,17,16,16,2,NA,"remove responses with higher scores",50,13,14,14,13,14,5,3,3,3,3,2,4,1,3,3,90,85,1,1,1,2,1,2,1,2,2,1,2,2,2,5,3,2,4,7,1,2,4,4,2,23,"male",2,"China",2,"9",2,NA,0,0,0,1,0,5,1,0.6,"Different Mean",1
"244",133,135,127,111,123,119,117,115,139,131,113,137,125,1.9873,0.000550533,1,14,39,2,1,9.9453,115,1.29732,39,"high","high",NA,1,1,NA,NA,1,1,NA,NA,1,NA,14,17,16,16,2,NA,"remove responses with higher scores",50,13,14,14,13,14,5,3,3,3,3,2,4,1,3,3,90,85,1,1,1,2,1,2,1,2,2,1,2,2,2,5,3,2,4,7,1,2,4,4,2,23,"male",2,"China",2,"9",2,NA,0,0,0,1,0,5,1,0.6,"Different Mean",1
"245",132,128,122,120,140,118,124,144,116,136,142,138,130,1.98742,0.000200997,0,14,40,1,1,9.9453,140,2.2309,48,"low","low",NA,1,1,NA,NA,1,1,NA,NA,1,NA,14,17,16,16,2,NA,"remove responses with higher scores",50,13,14,14,13,14,5,3,3,3,3,2,4,1,3,3,90,85,1,1,1,2,1,2,1,2,2,1,2,2,2,5,3,2,4,7,1,2,4,4,2,23,"male",2,"China",2,"9",2,NA,0,0,0,1,0,5,1,0.6,"Different Mean",1
"246",144,142,140,132,122,128,124,138,120,118,136,116,130,1.99654,0.000260869,1,14,41,2,1,9.9453,140,1.93826,1,"low","low",NA,1,1,NA,NA,1,1,NA,NA,1,NA,14,17,16,16,2,NA,"remove responses with higher scores",50,13,14,14,13,14,5,3,3,3,3,2,4,1,3,3,90,85,1,1,1,2,1,2,1,2,2,1,2,2,2,5,3,2,4,7,1,2,4,4,2,23,"male",2,"China",2,"9",2,NA,0,0,0,1,0,5,1,0.6,"Different Mean",1
"247",128,148,139,145,148,150,150,134,135,125,127,150,139.917,1.98811,0.000169921,1,14,42,3,1,9.78364,140,1.99672,2,"same","same",NA,1,1,NA,NA,1,1,NA,NA,1,NA,14,17,16,16,2,NA,"remove responses with higher scores",50,13,14,14,13,14,5,3,3,3,3,2,4,1,3,3,90,85,1,1,1,2,1,2,1,2,2,1,2,2,2,5,3,2,4,7,1,2,4,4,2,23,"male",2,"China",2,"9",2,NA,0,0,0,1,0,5,1,0.6,"Same Mean",-1
"248",124,132,136,128,120,138,142,140,122,116,144,118,130,1.99752,0.000295081,0,14,43,3,1,9.9453,140,2.12071,19,"low","low",NA,1,1,NA,NA,1,1,NA,NA,1,NA,14,17,16,16,2,NA,"remove responses with higher scores",50,13,14,14,13,14,5,3,3,3,3,2,4,1,3,3,90,85,1,1,1,2,1,2,1,2,2,1,2,2,2,5,3,2,4,7,1,2,4,4,2,23,"male",2,"China",2,"9",2,NA,0,0,0,1,0,5,1,0.6,"Different Mean",1
"249",135,150,125,148,139,128,148,150,150,127,134,145,139.917,1.99943,0.000256877,1,14,44,2,1,9.78364,140,2.05195,43,"same","same",NA,1,1,NA,NA,1,1,NA,NA,1,NA,14,17,16,16,2,NA,"remove responses with higher scores",50,13,14,14,13,14,5,3,3,3,3,2,4,1,3,3,90,85,1,1,1,2,1,2,1,2,2,1,2,2,2,5,3,2,4,7,1,2,4,4,2,23,"male",2,"China",2,"9",2,NA,0,0,0,1,0,5,1,0.6,"Same Mean",-1
